,Unnamed: 0,participant_id,task_idx,task_status,results_responses,results_rt,results_ind_switch,results_indtask,results_trial_target,results_ind_switch_clean,nb_correct_total_answer,nb_correct_relative_answer,nb_correct_parity_answer,nb_total,nb_parity,nb_relative,errors_in_switch,total_error,accuracy,mean_RT
0,0,15,3,PRE_TEST,"[1, 1, 2, 1, 2, 1, 1, 1, 2, 2, 2, 1, 1, 2, 1, 2, 1, 1, 1, 1, 2, 1, 1, 1, 2, 2, 1, 1, 2, 1, 2, 2, 2, 2, 1, 2, 2, 2, 2, 2, 1, 1, 2, 1, 1, 1, 2, 1, 2, 2, 2, 1, 1, 2, 1, 1, 1, 2, 1, 1, 2, 2, 2, 1, 1, 2, 1, 2, 1, 1, 1, 2, 1, 2, 2, 2, 1, 1, 2, 2, 2, 2, 2, 2, 2, 2, 2, 2, 1, 2, 1, 2, 1, 1, 1, 2, 2, 1, 1]","[750, 666, 750, 767, 700, 667, 1083, 700, 752, 565, 666, 617, 1132, 467, 548, 1017, 633, 582, 582, 534, 850, 902, 832, 483, 766, 599, 600, 466, 617, 1166, 650, 650, 601, 600, 484, 383, 550, 467, 467, 683, 633, 549, 652, 667, 416, 834, 632, 468, 1032, 550, 450, 400, 484, 533, 532, 632, 649, 700, 433, 384, 484, 400, 468, 565, 516, 1033, 1967, 900, 517, 501, 399, 500, 450, 667, 633, 567, 451, 782, 600, 683, 884, 617, 467, 750, 550, 467, 534, 667, 616, 717, 883, 651, 1251, 481, 850, 549, 533, 967, 533]","1,1,0,0,1,1,0,0,1,0,1,1,0,0,1,1,0,1,1,1,0,0,0,0,0,0,1,0,1,0,1,1,1,1,1,0,0,1,0,0,1,1,1,0,1,0,1,1,0,1,0,0,0,1,1,1,0,1,0,0,0,0,1,1,0,0,1,0,1,0,0,0,0,1,1,1,1,0,1,1,0,0,1,0,0,1,1,1,0,1,0,0,1,0,0,0,1,1,1","[0, 1, 0, 0, 0, 1, 0, 0, 0, 1, 1, 0, 1, 1, 1, 0, 1, 1, 0, 1, 0, 0, 0, 0, 0, 0, 0, 1, 1, 0, 0, 1, 0, 1, 0, 1, 1, 1, 0, 0, 0, 1, 0, 1, 1, 0, 0, 1, 0, 0, 1, 1, 1, 1, 0, 1, 0, 0, 1, 1, 1, 1, 1, 0, 1, 1, 1, 0, 0, 1, 1, 1, 1, 1, 0, 1, 0, 1, 1, 0, 1, 1, 1, 0, 0, 0, 1, 0, 1, 1, 0, 0, 0, 1, 1, 1, 1, 0, 1]","[1, 2, 8, 1, 6, 4, 3, 3, 8, 8, 6, 1, 3, 6, 1, 8, 1, 3, 3, 2, 6, 9, 7, 7, 4, 4, 7, 3, 6, 9, 4, 6, 4, 9, 1, 6, 9, 6, 4, 9, 9, 2, 6, 2, 2, 7, 6, 1, 8, 8, 6, 3, 2, 8, 1, 3, 3, 2, 2, 2, 8, 9, 6, 3, 2, 7, 6, 4, 1, 2, 2, 7, 3, 6, 2, 8, 1, 4, 8, 8, 7, 6, 7, 2, 4, 6, 9, 2, 2, 4, 7, 4, 7, 1, 3, 6, 7, 3, 1]","[0, 1, 0, 0, 1, 1, 0, 0, 1, 0, 1, 1, 0, 0, 1, 1, 0, 1, 1, 1, 0, 0, 0, 0, 0, 0, 1, 0, 1, 0, 1, 1, 1, 0, 1, 0, 0, 1, 0, 0, 1, 1, 1, 0, 1, 0, 1, 1, 0, 1, 0, 0, 0, 1, 1, 1, 0, 1, 0, 0, 0, 0, 1, 1, 0, 0, 0, 0, 1, 0, 0, 0, 0, 1, 1, 1, 1, 0, 1, 1, 0, 0, 1, 0, 0, 1, 1, 1, 0, 1, 0, 0, 1, 0, 0, 0, 1, 1, 1]",94,49,45,99,46,53,0,5,0.9494949494949495,653.2727272727273
1,1,15,3,POST_TEST,"[2, 2, 2, 1, 2, 2, 1, 2, 1, 1, 2, 1, 1, 1, 1, 2, 2, 1, 2, 2, 2, 2, 1, 1, 1, 2, 2, 1, 1, 1, 1, 2, 1, 1, 1, 2, 2, 2, 2, 2, 1, 2, 1, 1, 2, 1, 1, 2, 1, 2, 2, 1, 2, 1, 1, 1, 1, 2, 2, 2, 2, 2, 2, 1, 2, 1, 2, 2, 1, 1, 1, 1, 2, 1, 1, 2, 1, 1, 1, 2, 2, 2, 1, 2, 1, 1, 1, 1, 1, 1, 2, 1, 2, 1, 2, 1, 1, 1, 2]","[901, 399, 501, 750, 617, 501, 534, 1016, 567, 2282, 649, 450, 549, 667, 452, 667, 798, 432, 534, 450, 484, 549, 399, 466, 401, 634, 633, 417, 616, 568, 417, 467, 649, 517, 1216, 517, 617, 450, 884, 584, 432, 566, 533, 649, 865, 1098, 650, 666, 1117, 1016, 732, 500, 801, 517, 733, 417, 433, 483, 566, 1118, 649, 432, 532, 500, 667, 483, 850, 368, 749, 566, 400, 600, 501, 716, 434, 483, 633, 633, 517, 565, 601, 415, 684, 533, 465, 700, 1201, 1567, 465, 1001, 716, 599, 832, 467, 950, 701, 398, 584, 653]","1,0,1,1,1,1,1,1,1,0,0,0,0,1,0,1,0,0,1,0,1,1,1,0,0,0,0,0,0,1,0,1,1,1,0,0,0,0,1,1,1,0,1,1,0,1,0,0,1,0,1,1,0,0,1,0,1,0,0,1,0,1,0,1,1,1,0,0,1,0,1,0,1,1,0,0,1,1,0,1,0,0,1,0,1,1,1,1,1,0,0,1,0,0,1,0,0,1,1","[0, 1, 1, 0, 1, 0, 1, 0, 1, 0, 0, 0, 0, 0, 1, 1, 0, 0, 0, 1, 1, 0, 1, 0, 0, 0, 0, 0, 0, 0, 1, 1, 0, 0, 1, 1, 1, 1, 1, 0, 1, 0, 0, 1, 0, 0, 1, 1, 1, 0, 0, 1, 0, 0, 0, 1, 1, 0, 0, 0, 1, 1, 0, 0, 1, 0, 1, 1, 1, 0, 0, 1, 1, 0, 1, 1, 1, 0, 1, 1, 0, 0, 0, 1, 1, 0, 1, 0, 1, 0, 0, 0, 1, 1, 1, 0, 0, 0, 1]","[2, 8, 9, 9, 9, 8, 3, 8, 1, 7, 4, 3, 1, 7, 2, 3, 2, 9, 2, 9, 6, 8, 1, 7, 3, 4, 6, 2, 7, 1, 1, 8, 1, 2, 2, 4, 8, 9, 2, 6, 3, 4, 3, 4, 8, 9, 1, 7, 4, 6, 2, 1, 6, 7, 3, 2, 2, 2, 2, 6, 7, 7, 2, 9, 6, 1, 7, 7, 3, 1, 3, 3, 8, 9, 2, 9, 3, 1, 4, 7, 4, 4, 9, 6, 2, 3, 2, 9, 1, 9, 8, 9, 7, 3, 8, 7, 7, 3, 4]","[0, 0, 1, 1, 1, 1, 1, 1, 1, 0, 0, 0, 0, 1, 0, 1, 0, 0, 1, 0, 1, 1, 1, 0, 0, 0, 0, 0, 0, 1, 0, 1, 1, 0, 0, 0, 0, 0, 1, 1, 1, 0, 1, 1, 0, 1, 0, 0, 1, 0, 1, 1, 0, 0, 1, 0, 1, 0, 0, 1, 0, 1, 0, 1, 1, 1, 0, 0, 1, 0, 1, 0, 1, 1, 0, 0, 1, 1, 0, 1, 0, 0, 1, 0, 1, 1, 1, 1, 1, 0, 0, 1, 0, 0, 1, 0, 0, 1, 1]",90,39,51,99,53,46,0,9,0.9090909090909091,645.4848484848485
2,2,51,1,PRE_TEST,"[1, 1, 1, 1, 1, 1, 2, 1, 2, 2, 2, 1, 1, 1, 1, 1, 2, 1, 2, 1, 1, 1, 2, 1, 2, 2, 1, 1, 2, 1, 1, 2, 2, 2, 1, 2, 1, 2, 1, 2, 2, 1, 1, 2, 1, 2, 1, 2, 2, 1, 2, 1, 1, 1, 2, 2, 2, 2, 1, 2, 2, 1, 1, 1, 2, 1, 1, 1, 1, 2, 2, 1, 2, 2, 2, 2, 1, 1, 1, 1, 2, 1, 1, 2, 2, 1, 2, 1, 2, 2, 1, 2, 1, 1, 2, 2, 1, 2, 1]","[983, 549, 533, 550, 517, 450, 433, 966, 1000, 683, 517, 1600, 649, 1183, 600, 537, 667, 634, 999, 800, 817, 1199, 900, 767, 766, 750, 783, 500, 700, 516, 483, 699, 450, 1036, 935, 467, 483, 533, 483, 433, 416, 750, 983, 766, 817, 735, 666, 516, 716, 516, 1333, 1583, 499, 900, 966, 400, 1083, 470, 451, 483, 1066, 583, 816, 1299, 807, 882, 1216, 1133, 666, 649, 550, 617, 703, 617, 617, 583, 700, 600, 949, 683, 583, 535, 466, 785, 600, 617, 883, 1100, 581, 450, 616, 1135, 450, 550, 568, 1199, 600, 683, 417]","0,1,1,0,1,1,1,1,0,0,1,0,1,0,1,1,0,0,1,1,1,1,0,0,0,0,0,1,0,0,1,0,0,1,1,0,0,1,0,0,0,1,0,0,1,1,1,1,0,1,1,0,1,0,0,1,0,1,1,1,0,0,0,0,1,1,0,1,0,1,0,0,1,0,0,0,1,1,0,0,1,0,1,1,0,1,1,0,0,1,1,0,0,1,1,1,1,0,0","[0, 0, 1, 0, 0, 1, 0, 1, 0, 0, 0, 1, 1, 0, 0, 1, 0, 0, 0, 1, 0, 1, 0, 0, 0, 0, 0, 0, 1, 1, 1, 0, 0, 0, 1, 0, 0, 0, 1, 1, 1, 1, 0, 0, 0, 1, 0, 1, 0, 0, 1, 0, 0, 1, 1, 1, 0, 0, 1, 0, 1, 1, 1, 1, 1, 0, 1, 1, 0, 0, 1, 1, 1, 0, 0, 0, 0, 1, 0, 0, 0, 1, 1, 0, 1, 1, 0, 1, 1, 1, 0, 1, 1, 1, 0, 1, 0, 1, 1]","[9, 7, 2, 7, 3, 3, 4, 9, 4, 2, 2, 4, 4, 9, 7, 4, 6, 7, 6, 2, 1, 3, 8, 7, 4, 8, 7, 7, 9, 1, 1, 4, 2, 6, 1, 6, 1, 8, 3, 7, 7, 2, 9, 6, 1, 9, 1, 8, 6, 3, 6, 1, 1, 3, 6, 6, 2, 4, 3, 9, 8, 7, 4, 3, 6, 9, 4, 3, 9, 2, 7, 3, 7, 4, 2, 4, 1, 2, 3, 9, 8, 4, 2, 2, 6, 4, 2, 1, 8, 8, 9, 7, 4, 3, 2, 7, 7, 9, 1]","[0, 1, 1, 0, 1, 1, 1, 1, 0, 0, 1, 0, 1, 0, 1, 1, 0, 0, 1, 1, 1, 1, 0, 0, 0, 0, 0, 1, 0, 0, 1, 0, 0, 0, 1, 0, 0, 1, 0, 0, 0, 1, 0, 0, 1, 1, 1, 1, 0, 1, 1, 0, 1, 0, 0, 1, 0, 1, 1, 1, 0, 0, 0, 0, 1, 1, 0, 1, 0, 1, 0, 0, 1, 0, 0, 0, 1, 1, 0, 0, 1, 0, 1, 1, 0, 1, 1, 0, 0, 1, 1, 0, 0, 1, 1, 1, 1, 0, 0]",88,37,51,99,52,47,2,11,0.8888888888888888,728.8181818181819
3,3,51,1,POST_TEST,"[2, 2, 2, 1, 1, 1, 1, 1, 2, 1, 2, 2, 2, 2, 1, 2, 2, 2, 2, 1, 1, 1, 1, 2, 1, 2, 1, 2, 1, 1, 2, 1, 2, 1, 1, 2, 1, 1, 2, 1, 2, 1, 1, 2, 2, 1, 2, 2, 2, 2, 2, 2, 1, 2, 1, 2, 2, 2, 1, 1, 2, 2, 2, 1, 2, 1, 2, 2, 2, 1, 1, 2, 2, 2, 1, 1, 2, 2, 1, 2, 1, 2, 2, 2, 2, 1, 1, 2, 2, 1, 2, 1, 2, 2, 1, 2, 1, 1, 1]","[1316, 399, 383, 615, 383, 350, 616, 582, 417, 833, 483, 450, 832, 550, 601, 666, 450, 417, 533, 983, 700, 451, 515, 767, 932, 482, 750, 1264, 850, 483, 449, 483, 565, 1215, 716, 488, 484, 516, 501, 483, 849, 584, 765, 600, 900, 816, 483, 416, 483, 683, 550, 633, 783, 483, 1134, 1283, 816, 1199, 633, 666, 567, 471, 433, 483, 500, 1050, 1066, 733, 750, 450, 498, 417, 434, 400, 650, 550, 416, 700, 700, 651, 584, 450, 434, 566, 400, 577, 632, 1316, 1033, 1183, 1399, 1981, 733, 566, 650, 1233, 650, 516, 483]","1,0,0,0,1,1,0,0,1,0,1,0,0,0,1,0,1,1,0,1,1,0,0,1,1,1,1,1,1,0,0,0,0,0,0,1,0,0,1,1,0,0,1,1,0,1,0,0,1,1,1,1,0,1,1,1,1,0,0,1,0,0,0,1,0,0,1,0,1,1,0,1,1,0,0,1,0,1,0,1,0,1,0,1,0,1,0,1,1,1,0,1,0,0,0,0,1,0,0","[1, 0, 0, 0, 0, 1, 0, 0, 0, 1, 1, 0, 0, 0, 0, 1, 1, 0, 1, 1, 0, 1, 1, 1, 0, 1, 0, 1, 0, 1, 1, 1, 1, 1, 1, 1, 0, 0, 0, 1, 0, 0, 0, 1, 0, 0, 1, 1, 1, 0, 1, 0, 1, 1, 0, 1, 0, 1, 1, 1, 0, 0, 0, 0, 1, 1, 1, 0, 0, 1, 0, 0, 1, 0, 0, 0, 1, 1, 0, 0, 1, 1, 0, 0, 1, 1, 0, 0, 1, 0, 1, 1, 0, 0, 0, 0, 0, 1, 1]","[8, 8, 8, 3, 3, 3, 9, 1, 6, 3, 4, 8, 2, 4, 3, 8, 6, 8, 4, 2, 7, 4, 1, 6, 9, 8, 9, 9, 1, 1, 9, 1, 6, 2, 1, 6, 7, 3, 2, 1, 6, 7, 3, 4, 6, 3, 9, 6, 9, 2, 8, 8, 4, 9, 7, 8, 2, 7, 4, 1, 4, 8, 8, 3, 9, 3, 7, 4, 8, 2, 1, 8, 9, 2, 9, 3, 8, 7, 9, 2, 2, 8, 8, 6, 6, 7, 1, 8, 7, 1, 9, 3, 4, 9, 9, 6, 1, 4, 3]","[0, 0, 0, 0, 1, 1, 0, 0, 1, 0, 1, 0, 0, 0, 1, 0, 1, 1, 0, 1, 1, 0, 0, 1, 1, 1, 1, 1, 1, 0, 0, 0, 0, 0, 0, 1, 0, 0, 1, 1, 0, 0, 1, 1, 0, 1, 0, 0, 1, 1, 1, 1, 0, 1, 1, 1, 1, 0, 0, 1, 0, 0, 0, 1, 0, 0, 0, 0, 1, 1, 0, 1, 1, 0, 0, 1, 0, 1, 0, 1, 0, 1, 0, 1, 0, 1, 0, 1, 1, 1, 0, 1, 0, 0, 0, 0, 1, 0, 0]",90,40,50,99,51,48,0,9,0.9090909090909091,676.939393939394
4,4,48,0,PRE_TEST,"[2, 1, 2, 2, 1, 2, 2, 2, 1, 1, 1, 1, 2, 1, 1, 2, 2, 2, 1, 2, 2, 1, 1, 1, 2, 1, 1, 2, 1, 1, 2, 1, 1, 2, 2, 2, 1, 1, 2, 1, 2, 2, 1, 2, 1, 2, 1, 1, 2, 1, 2, 2, 1, 2, 2, 2, 1, 1, 2, 1, 1, 2, 2, 1, 1, 1, 2, 1, 1, 1, 2, 1, 2, 2, 1, 2, 2, 2, 1, 2, 1, 2, 2, 1, 1, 1, 1, 2, 1, 1, 1, 1, 2, 2, 1, 2, 2, 2, 2]","[5784, 934, 800, 866, 1133, 1083, 750, 2315, 933, 1367, 1433, 1217, 1300, 900, 849, 783, 1100, 816, 1384, 1100, 2033, 1100, 1517, 1984, 1034, 783, 833, 1017, 900, 966, 984, 1934, 883, 2234, 767, 751, 933, 800, 983, 950, 700, 684, 1267, 917, 967, 1067, 867, 1183, 967, 1116, 1017, 833, 934, 850, 784, 1167, 899, 1100, 817, 850, 1400, 1334, 1633, 1217, 600, 1917, 1951, 1066, 766, 1333, 800, 750, 750, 784, 1333, 901, 1899, 783, 700, 984, 1317, 1418, 1451, 1167, 883, 1000, 884, 1432, 1033, 782, 1817, 734, 766, 1533, 1883, 951, 849, 1651, 901]","1,0,0,1,0,1,1,0,1,1,1,1,0,0,0,0,1,1,1,1,0,0,1,0,0,0,1,0,0,1,1,0,0,1,0,1,0,1,1,1,0,1,1,0,0,1,1,1,1,0,0,0,1,0,1,0,0,0,0,0,0,1,1,0,1,1,0,0,1,0,1,0,0,1,1,1,0,0,1,1,0,1,1,0,1,0,1,1,0,1,1,0,0,1,0,0,1,0,0","[0, 1, 1, 1, 0, 0, 1, 0, 0, 1, 0, 1, 0, 0, 0, 0, 0, 1, 0, 1, 0, 0, 0, 1, 1, 1, 1, 0, 0, 0, 1, 0, 0, 0, 1, 1, 0, 0, 1, 0, 1, 1, 0, 1, 1, 1, 0, 1, 0, 1, 1, 1, 1, 0, 0, 1, 1, 1, 1, 1, 1, 1, 0, 1, 1, 0, 1, 1, 1, 0, 0, 1, 1, 1, 0, 1, 0, 0, 0, 1, 0, 0, 1, 0, 0, 1, 1, 0, 1, 1, 0, 1, 1, 1, 0, 0, 0, 1, 1]","[8, 4, 7, 7, 3, 8, 6, 8, 7, 3, 9, 3, 6, 1, 1, 6, 4, 8, 7, 7, 2, 1, 9, 4, 9, 2, 2, 2, 9, 9, 9, 9, 3, 2, 6, 9, 9, 1, 8, 1, 9, 9, 9, 7, 1, 9, 3, 2, 4, 4, 6, 7, 1, 2, 4, 6, 4, 1, 9, 8, 3, 8, 2, 1, 1, 9, 7, 2, 3, 1, 2, 4, 8, 9, 9, 1, 8, 2, 3, 9, 7, 4, 7, 1, 9, 1, 3, 6, 2, 3, 1, 4, 6, 7, 1, 8, 8, 9, 6]","[0, 0, 0, 1, 0, 1, 1, 0, 1, 1, 1, 1, 0, 0, 0, 0, 1, 1, 1, 1, 0, 0, 1, 0, 0, 0, 1, 0, 0, 1, 1, 0, 0, 0, 0, 1, 0, 1, 1, 1, 0, 1, 1, 0, 0, 1, 1, 1, 1, 0, 0, 0, 1, 0, 1, 0, 0, 0, 0, 0, 0, 1, 1, 0, 1, 1, 0, 0, 1, 0, 1, 0, 0, 1, 1, 1, 0, 0, 1, 1, 0, 1, 1, 0, 1, 0, 1, 1, 0, 1, 1, 0, 0, 1, 0, 0, 1, 0, 0]",91,45,46,99,46,53,0,8,0.9191919191919192,1157.2929292929293
5,5,48,0,POST_TEST,"[2, 2, 2, 1, 1, 2, 2, 1, 2, 2, 1, 1, 1, 2, 2, 2, 2, 2, 2, 1, 2, 1, 2, 2, 2, 2, 2, 2, 1, 1, 1, 1, 2, 1, 1, 1, 2, 2, 2, 1, 1, 2, 1, 1, 1, 2, 1, 2, 2, 1, 1, 1, 2, 1, 1, 1, 1, 1, 2, 2, 2, 1, 1, 2, 2, 1, 1, 2, 1, 2, 1, 1, 1, 2, 1, 2, 1, 1, 1, 2, 2, 2, 2, 1, 2, 2, 1, 2, 1, 1, 1, 1, 2, 2, 1, 1, 1, 2, 2]","[1550, 816, 599, 1000, 700, 600, 1583, 833, 683, 600, 1167, 1283, 1383, 733, 617, 1433, 1065, 1100, 684, 1184, 867, 850, 750, 966, 717, 767, 734, 983, 1200, 1850, 867, 750, 1266, 1467, 933, 683, 901, 600, 1466, 733, 1399, 832, 801, 683, 683, 883, 684, 733, 933, 1266, 1500, 616, 883, 699, 967, 750, 850, 966, 717, 1834, 1416, 817, 1184, 767, 1234, 751, 1667, 1032, 1382, 2767, 650, 667, 766, 1667, 1216, 783, 749, 749, 684, 984, 500, 716, 1000, 1000, 1234, 1284, 949, 1299, 1233, 666, 1117, 733, 716, 1001, 800, 683, 1100, 750, 917]","0,0,1,0,1,1,1,0,0,1,1,1,0,1,1,0,0,1,0,1,0,0,0,1,0,0,1,1,1,0,1,0,0,0,0,1,1,1,0,0,0,1,0,0,1,1,0,0,1,1,0,0,0,1,0,1,1,0,1,1,1,1,0,1,0,0,0,1,1,0,0,1,1,0,0,0,1,1,1,0,0,1,1,1,1,1,0,1,0,1,0,0,0,1,0,1,0,0,0","[1, 1, 1, 0, 0, 1, 0, 1, 1, 1, 0, 1, 0, 0, 1, 0, 0, 0, 1, 1, 0, 0, 0, 0, 1, 1, 1, 0, 1, 0, 0, 1, 1, 1, 1, 1, 0, 1, 0, 0, 0, 0, 1, 1, 1, 0, 1, 1, 1, 0, 1, 1, 1, 1, 0, 0, 1, 0, 0, 1, 0, 1, 0, 0, 1, 1, 0, 0, 1, 0, 0, 0, 1, 0, 0, 0, 0, 1, 0, 1, 1, 1, 0, 1, 0, 1, 0, 0, 1, 1, 0, 0, 0, 0, 1, 1, 0, 0, 0]","[9, 8, 6, 3, 3, 9, 6, 1, 7, 9, 3, 2, 1, 4, 9, 8, 6, 2, 7, 2, 8, 9, 8, 2, 7, 7, 7, 4, 4, 3, 7, 2, 7, 2, 4, 4, 8, 9, 8, 1, 7, 2, 1, 1, 1, 4, 3, 6, 7, 1, 1, 1, 8, 2, 9, 7, 4, 1, 6, 6, 6, 1, 3, 4, 9, 4, 3, 2, 1, 6, 1, 1, 3, 4, 3, 2, 3, 3, 1, 9, 9, 6, 2, 3, 2, 9, 1, 6, 3, 3, 7, 3, 8, 2, 2, 4, 3, 2, 8]","[0, 0, 1, 0, 1, 1, 1, 0, 0, 1, 1, 1, 0, 1, 1, 0, 0, 1, 0, 1, 0, 0, 0, 1, 0, 0, 1, 1, 1, 0, 1, 0, 0, 0, 0, 1, 1, 1, 0, 0, 0, 1, 0, 0, 1, 1, 0, 0, 1, 1, 0, 0, 0, 1, 0, 1, 1, 0, 1, 1, 1, 1, 0, 1, 0, 0, 0, 1, 1, 0, 0, 1, 1, 0, 0, 0, 1, 1, 1, 0, 0, 1, 1, 1, 1, 1, 0, 1, 0, 1, 0, 0, 0, 1, 0, 1, 0, 0, 0]",93,42,51,99,51,48,0,6,0.9393939393939394,982.5454545454545
6,6,68,2,PRE_TEST,"[1, 1, 1, 1, 2, 2, 1, 2, 1, 1, 1, 2, 2, 1, 2, 1, 1, 1, 2, 2, 1, 1, 2, 2, 1, 2, 1, 1, 1, 2, 2, 2, 2, 1, 2, 2, 2, 1, 1, 1, 2, 2, 1, 1, 1, 1, 2, 2, 1, 2, 1, 1, 1, 1, 2, 2, 2, 2, 2, 2, 1, 1, 1, 2, 1, 2, 2, 1, 1, 2, 1, 1, 2, 1, 1, 2, 1, 2, 1, 2, 2, 2, 2, 2, 1, 2, 2, 2, 1, 1, 1, 1, 2, 2, 2, 1, 1, 2, 2]","[1285, 946, 876, 1002, 918, 831, 945, 751, 786, 700, 802, 668, 567, 918, 534, 734, 732, 733, 485, 797, 632, 585, 500, 898, 696, 532, 951, 672, 649, 496, 654, 667, 1120, 1416, 984, 599, 699, 551, 537, 645, 500, 674, 540, 676, 574, 574, 501, 534, 550, 574, 567, 544, 603, 864, 500, 919, 554, 484, 599, 582, 457, 651, 640, 526, 584, 1019, 749, 694, 666, 554, 567, 583, 531, 499, 738, 500, 578, 529, 512, 546, 650, 548, 580, 666, 1000, 740, 792, 726, 526, 1058, 751, 1261, 681, 750, 746, 482, 586, 633, 568]","1,0,1,1,1,1,1,0,0,0,0,0,1,0,1,1,1,0,1,1,1,0,0,0,0,0,0,0,0,1,1,1,1,0,1,1,0,0,1,0,0,1,0,0,0,1,0,1,1,1,0,1,1,0,1,0,1,1,0,0,0,1,0,1,1,1,1,0,0,0,0,1,0,0,0,1,0,1,1,0,0,1,1,1,0,1,1,0,1,0,1,0,1,1,0,1,1,0,0","[0, 1, 1, 0, 1, 0, 1, 0, 0, 0, 0, 0, 0, 1, 1, 0, 1, 0, 0, 1, 0, 1, 1, 1, 1, 1, 1, 1, 1, 1, 0, 1, 0, 1, 1, 0, 1, 1, 1, 0, 0, 0, 1, 1, 1, 1, 0, 0, 1, 0, 1, 1, 0, 1, 1, 0, 0, 1, 0, 0, 0, 0, 1, 1, 0, 1, 1, 0, 0, 0, 0, 0, 1, 1, 1, 1, 0, 0, 1, 0, 0, 0, 1, 0, 1, 1, 0, 1, 1, 0, 0, 1, 1, 0, 1, 1, 0, 1, 1]","[3, 3, 1, 7, 3, 8, 1, 6, 1, 3, 3, 8, 4, 2, 6, 7, 1, 9, 2, 9, 7, 3, 8, 7, 2, 7, 4, 4, 3, 9, 2, 6, 4, 1, 7, 8, 4, 2, 2, 1, 8, 2, 2, 4, 3, 4, 8, 6, 2, 8, 2, 2, 1, 2, 8, 2, 4, 9, 2, 4, 3, 1, 4, 6, 7, 6, 8, 9, 9, 4, 3, 3, 9, 3, 4, 8, 9, 4, 4, 8, 2, 4, 7, 6, 9, 6, 8, 8, 2, 7, 9, 3, 7, 8, 9, 3, 3, 8, 8]","[0, 0, 1, 1, 1, 1, 1, 0, 0, 0, 0, 0, 1, 0, 1, 1, 1, 0, 1, 1, 1, 0, 0, 0, 0, 0, 0, 0, 0, 1, 1, 1, 1, 0, 1, 1, 0, 0, 1, 0, 0, 1, 0, 0, 0, 1, 0, 1, 1, 1, 0, 1, 1, 0, 1, 0, 1, 1, 0, 0, 0, 1, 0, 1, 1, 1, 0, 0, 0, 0, 0, 1, 0, 0, 0, 1, 0, 1, 1, 0, 0, 1, 1, 1, 0, 1, 1, 0, 1, 0, 1, 0, 1, 1, 0, 1, 1, 0, 0]",89,43,46,99,46,53,0,10,0.898989898989899,689.6262626262626
7,7,68,2,POST_TEST,"[1, 1, 2, 2, 1, 2, 2, 1, 2, 2, 1, 1, 2, 2, 1, 2, 1, 1, 2, 2, 1, 2, 2, 1, 2, 2, 1, 1, 2, 2, 2, 2, 2, 1, 2, 2, 2, 2, 1, 1, 1, 2, 1, 1, 1, 1, 1, 1, 2, 1, 1, 2, 2, 1, 2, 1, 1, 2, 2, 1, 1, 1, 2, 2, 1, 2, 2, 1, 2, 2, 2, 1, 1, 1, 2, 2, 2, 2, 2, 2, 2, 2, 2, 1, 1, 1, 2, 1, 1, 1, 2, 1, 2, 1, 2, 2, 1, 1, 1]","[1168, 816, 734, 602, 616, 903, 611, 561, 644, 507, 515, 563, 668, 668, 1330, 1104, 600, 783, 868, 1154, 931, 682, 799, 697, 683, 582, 1002, 568, 752, 749, 717, 834, 683, 1052, 817, 791, 684, 751, 751, 1134, 954, 637, 616, 733, 783, 1017, 618, 620, 600, 614, 585, 967, 1055, 684, 731, 918, 616, 620, 850, 736, 704, 649, 616, 889, 615, 1050, 867, 484, 667, 752, 595, 549, 704, 636, 591, 700, 782, 699, 758, 632, 766, 700, 738, 805, 951, 717, 751, 600, 967, 771, 701, 767, 735, 717, 1799, 651, 534, 682, 685]","1,0,1,1,1,0,0,1,0,0,0,0,1,0,0,1,1,1,0,1,1,1,0,1,0,1,0,1,1,0,0,0,0,0,0,0,1,0,1,1,1,0,0,1,1,0,0,1,0,0,1,1,1,0,1,1,0,1,0,0,1,0,1,0,1,1,1,1,1,0,1,1,1,0,0,0,1,0,0,1,0,1,1,1,0,1,0,0,1,0,0,1,0,1,0,0,0,1,1","[0, 1, 1, 0, 1, 0, 0, 0, 1, 1, 1, 1, 1, 0, 0, 0, 1, 0, 1, 1, 0, 1, 0, 0, 1, 1, 0, 0, 1, 0, 0, 0, 0, 1, 1, 1, 1, 0, 0, 1, 0, 1, 1, 1, 0, 1, 1, 1, 0, 0, 0, 1, 0, 1, 1, 0, 1, 1, 0, 0, 0, 1, 1, 0, 0, 1, 0, 1, 0, 1, 1, 0, 1, 0, 0, 0, 0, 1, 1, 1, 0, 0, 1, 0, 1, 1, 0, 0, 0, 1, 1, 1, 0, 0, 1, 1, 1, 1, 0]","[7, 3, 9, 8, 9, 4, 8, 3, 6, 6, 1, 1, 4, 8, 9, 4, 2, 1, 6, 7, 9, 9, 2, 3, 7, 6, 7, 7, 6, 6, 2, 4, 4, 3, 8, 7, 4, 4, 9, 2, 7, 9, 1, 3, 1, 4, 3, 2, 8, 9, 9, 7, 2, 1, 8, 7, 1, 7, 2, 9, 9, 1, 6, 6, 1, 8, 2, 3, 2, 6, 9, 3, 1, 9, 4, 2, 6, 8, 6, 6, 4, 6, 8, 7, 2, 3, 8, 3, 9, 2, 8, 4, 4, 9, 9, 8, 2, 4, 1]","[0, 0, 1, 1, 1, 0, 0, 1, 0, 0, 0, 0, 1, 0, 0, 1, 1, 1, 0, 1, 1, 1, 0, 1, 0, 1, 0, 1, 1, 0, 0, 0, 0, 0, 0, 0, 1, 0, 1, 1, 1, 0, 0, 1, 1, 0, 0, 1, 0, 0, 1, 1, 1, 0, 1, 1, 0, 1, 0, 0, 1, 0, 1, 0, 1, 1, 0, 1, 1, 0, 1, 1, 1, 0, 0, 0, 1, 0, 0, 1, 0, 1, 1, 1, 0, 1, 0, 0, 1, 0, 0, 1, 0, 1, 0, 0, 0, 1, 1]",93,45,48,99,48,51,0,6,0.9393939393939394,757.6161616161617
8,8,70,0,PRE_TEST,"[1, 2, 2, 2, 1, 2, 1, 2, 2, 2, 2, 1, 2, 1, 2, 2, 2, 1, 1, 1, 1, 2, 2, 2, 1, 2, 1, 1, 1, 1, 2, 1, 1, 2, 1, 1, 1, 2, 1, 2, 2, 1, 1, 2, 1, 2, 2, 1, 2, 1, 2, 1, 2, 2, 2, 1, 1, 1, 2, 2, 2, 2, 1, 1, 0, 1, 2, 2, 2, 2, 2, 2, 1, 2, 1, 1, 2, 1, 1, 2, 1, 1, 2, 2, 2, 1, 2, 2, 2, 1, 1, 1, 1, 1, 1, 2, 1, 2, 1]","[1416, 1249, 633, 649, 582, 668, 817, 734, 734, 1400, 1082, 815, 633, 601, 699, 599, 734, 698, 1417, 684, 800, 649, 698, 466, 1132, 733, 800, 883, 534, 1033, 1250, 567, 1051, 1132, 683, 683, 600, 417, 1233, 949, 1215, 417, 967, 599, 618, 884, 632, 950, 882, 631, 1300, 1034, 700, 1450, 516, 916, 983, 1516, 682, 466, 732, 1000, 816, 717, 1333, 617, 500, 699, 632, 484, 1001, 599, 866, 750, 517, 883, 583, 1467, 900, 1216, 1735, 1166, 966, 651, 1001, 1350, 1733, 1316, 1334, 716, 649, 449, 465, 416, 733, 733, 1133, 467]","0,0,0,1,0,1,1,1,1,1,1,0,0,0,0,1,1,1,0,0,1,1,0,0,0,0,1,0,1,1,0,1,1,0,1,0,0,1,0,1,0,1,0,0,0,1,1,0,1,1,0,1,1,0,1,1,1,0,0,1,1,0,0,0,1,1,0,1,1,0,1,0,0,1,0,1,1,1,0,1,1,1,0,0,1,0,1,1,0,0,0,1,0,0,1,0,1,0,0","[0, 0, 0, 0, 1, 1, 0, 1, 0, 1, 0, 1, 1, 1, 1, 1, 0, 1, 0, 0, 0, 1, 0, 0, 0, 0, 0, 1, 1, 0, 1, 1, 0, 0, 0, 1, 1, 1, 0, 0, 1, 1, 0, 0, 0, 0, 1, 0, 0, 1, 0, 0, 1, 0, 0, 1, 0, 1, 1, 1, 0, 1, 1, 1, 1, 0, 1, 1, 0, 1, 1, 0, 0, 0, 1, 1, 0, 1, 0, 0, 1, 0, 1, 1, 1, 0, 0, 1, 0, 0, 0, 0, 1, 1, 1, 0, 0, 1, 1]","[3, 4, 4, 8, 4, 7, 9, 6, 2, 6, 4, 4, 7, 4, 6, 9, 6, 4, 7, 3, 7, 6, 2, 2, 7, 4, 1, 1, 4, 9, 6, 1, 1, 4, 1, 1, 4, 6, 9, 2, 7, 4, 1, 8, 9, 8, 7, 9, 4, 4, 4, 7, 8, 6, 6, 1, 8, 1, 8, 9, 4, 7, 1, 3, 4, 1, 7, 9, 2, 6, 7, 2, 9, 6, 1, 1, 8, 3, 9, 8, 4, 9, 6, 8, 7, 1, 4, 7, 8, 3, 7, 9, 4, 4, 3, 8, 3, 8, 1]","[0, 0, 0, 1, 0, 1, 1, 1, 1, 1, 1, 0, 0, 0, 0, 1, 1, 1, 0, 0, 1, 1, 0, 0, 0, 0, 1, 0, 1, 1, 0, 1, 1, 0, 1, 0, 0, 1, 0, 1, 0, 1, 0, 0, 0, 1, 1, 0, 1, 1, 0, 1, 1, 0, 1, 1, 1, 0, 0, 1, 1, 0, 0, 0, 1, 1, 0, 1, 1, 0, 1, 0, 0, 1, 0, 1, 1, 1, 0, 1, 1, 1, 0, 0, 1, 0, 1, 1, 0, 0, 0, 1, 0, 0, 1, 0, 1, 0, 0]",86,36,50,99,51,48,2,13,0.8686868686868687,855.3061224489796
9,9,70,0,POST_TEST,"[2, 1, 1, 2, 2, 2, 2, 2, 1, 1, 2, 2, 1, 1, 2, 1, 2, 1, 2, 2, 1, 2, 2, 1, 1, 1, 1, 2, 1, 1, 2, 1, 1, 1, 2, 1, 1, 1, 1, 2, 2, 2, 1, 1, 1, 1, 1, 2, 1, 2, 2, 2, 2, 2, 1, 1, 2, 2, 2, 1, 2, 1, 2, 2, 2, 2, 1, 1, 1, 1, 2, 1, 1, 2, 1, 1, 2, 2, 2, 2, 2, 2, 1, 1, 1, 1, 2, 2, 2, 1, 2, 1, 1, 1, 1, 1, 2, 2, 2]","[717, 483, 716, 532, 599, 383, 833, 418, 483, 649, 549, 1199, 451, 2101, 549, 1084, 633, 717, 602, 517, 449, 467, 1232, 900, 682, 784, 667, 1133, 1198, 865, 1150, 800, 750, 1117, 1334, 631, 800, 466, 784, 1615, 616, 400, 967, 532, 651, 517, 733, 515, 500, 416, 1933, 1016, 517, 817, 950, 1482, 700, 1083, 584, 1299, 3400, 983, 732, 567, 1050, 582, 1466, 433, 533, 400, 1015, 850, 1284, 816, 651, 750, 1416, 1134, 716, 1216, 816, 900, 632, 966, 549, 850, 800, 1000, 884, 650, 649, 667, 1101, 483, 566, 448, 450, 433, 600]","0,1,0,1,0,1,0,1,0,0,1,0,1,0,1,0,0,0,1,0,0,1,0,1,1,0,1,0,1,1,1,1,1,1,0,0,1,1,0,1,0,1,0,0,0,1,0,0,0,1,1,0,0,1,1,0,1,0,1,1,1,0,0,1,1,1,0,0,0,1,1,1,0,1,1,1,1,1,1,1,0,0,1,0,1,0,1,1,0,0,0,1,1,0,0,0,0,0,0","[1, 1, 0, 0, 1, 1, 0, 0, 1, 1, 1, 0, 0, 1, 1, 0, 0, 0, 0, 1, 1, 1, 0, 0, 1, 0, 0, 1, 1, 0, 1, 0, 1, 1, 0, 0, 0, 1, 0, 0, 1, 1, 0, 0, 0, 0, 1, 1, 1, 1, 0, 1, 1, 1, 0, 1, 1, 0, 0, 1, 0, 1, 1, 1, 0, 1, 1, 1, 1, 1, 0, 1, 0, 0, 1, 0, 1, 0, 1, 0, 1, 1, 1, 0, 0, 1, 1, 0, 1, 1, 1, 1, 0, 1, 1, 1, 1, 1, 1]","[9, 1, 3, 4, 9, 9, 8, 8, 3, 2, 8, 6, 3, 2, 9, 7, 8, 3, 8, 7, 4, 6, 4, 7, 2, 3, 9, 9, 4, 9, 8, 7, 7, 4, 2, 7, 3, 3, 3, 4, 9, 8, 9, 3, 7, 1, 2, 9, 3, 6, 8, 6, 9, 6, 2, 2, 8, 2, 2, 3, 2, 2, 7, 7, 4, 9, 1, 3, 4, 4, 4, 4, 7, 4, 3, 7, 8, 8, 7, 6, 8, 6, 1, 7, 3, 1, 8, 2, 8, 4, 6, 2, 7, 4, 3, 1, 6, 9, 8]","[0, 1, 0, 1, 0, 1, 0, 1, 0, 0, 1, 0, 1, 0, 1, 0, 0, 0, 1, 0, 0, 1, 0, 1, 1, 0, 1, 0, 1, 1, 1, 1, 1, 0, 0, 0, 1, 1, 0, 1, 0, 1, 0, 0, 0, 1, 0, 0, 0, 1, 1, 0, 0, 1, 1, 0, 1, 0, 1, 1, 1, 0, 0, 1, 1, 1, 0, 0, 0, 1, 1, 1, 0, 1, 1, 1, 1, 1, 1, 1, 0, 0, 1, 0, 1, 0, 1, 1, 0, 0, 0, 1, 1, 0, 0, 0, 0, 0, 0]",89,49,40,99,41,58,2,10,0.898989898989899,825.3030303030303
10,10,82,2,PRE_TEST,"[1, 1, 1, 1, 1, 2, 1, 2, 1, 1, 1, 1, 2, 2, 2, 1, 2, 1, 1, 2, 2, 2, 1, 1, 2, 1, 1, 1, 2, 1, 2, 1, 1, 1, 2, 1, 2, 1, 2, 2, 1, 2, 2, 2, 1, 2, 1, 1, 2, 2, 2, 1, 1, 1, 2, 2, 1, 1, 2, 1, 1, 1, 2, 2, 1, 1, 1, 2, 2, 1, 2, 1, 2, 2, 1, 1, 2, 0, 2, 2, 1, 1, 2, 2, 2, 1, 2, 1, 1, 1, 2, 1, 2, 1, 2, 2, 1, 2, 2]","[3218, 983, 1249, 899, 1150, 3150, 1950, 1416, 1950, 1567, 1833, 1351, 1549, 1100, 1367, 1683, 1350, 2182, 1132, 999, 3683, 1466, 1333, 1466, 1150, 2816, 1267, 1217, 4816, 1283, 1150, 1266, 1550, 4899, 1050, 1350, 1233, 1066, 950, 1683, 1016, 1299, 2083, 1034, 1834, 1033, 1099, 3384, 1732, 1900, 2100, 1383, 1183, 867, 1217, 1267, 899, 1548, 1318, 983, 998, 1350, 1250, 2666, 1284, 917, 2201, 2084, 1117, 1600, 1067, 767, 883, 1832, 3551, 2999, 949, 1965, 1349, 799, 3383, 1318, 884, 1217, 834, 2349, 1183, 2149, 800, 867, 1234, 783, 851, 1001, 883, 2099, 1133, 1383]","0,1,1,0,0,1,0,0,1,0,0,0,1,0,1,0,1,0,0,1,0,0,1,1,1,0,1,1,0,1,1,1,1,0,1,0,1,0,1,1,1,0,1,1,0,0,1,1,1,0,0,0,0,0,1,0,0,0,0,1,1,1,1,1,0,0,0,1,0,1,0,1,0,1,1,1,1,1,0,0,1,1,0,0,1,0,1,0,0,1,1,0,0,1,0,1,0,0,0","[0, 0, 1, 0, 0, 0, 1, 1, 1, 0, 0, 0, 0, 1, 1, 0, 0, 1, 1, 1, 0, 0, 0, 1, 0, 1, 1, 0, 1, 1, 0, 1, 0, 1, 1, 0, 0, 1, 1, 0, 1, 0, 0, 1, 0, 0, 0, 1, 0, 1, 1, 1, 1, 1, 1, 0, 0, 0, 0, 0, 1, 0, 1, 0, 1, 1, 0, 0, 1, 1, 0, 0, 1, 1, 0, 1, 0, 1, 0, 0, 0, 1, 0, 0, 0, 1, 1, 0, 0, 0, 1, 0, 0, 0, 1, 1, 0, 0, 0]","[7, 1, 3, 1, 1, 4, 2, 8, 2, 9, 7, 1, 2, 6, 8, 9, 2, 2, 4, 8, 2, 6, 7, 2, 8, 2, 4, 1, 7, 3, 4, 4, 9, 4, 6, 9, 8, 4, 6, 6, 1, 2, 8, 7, 7, 2, 1, 4, 8, 9, 6, 1, 3, 3, 6, 4, 3, 1, 2, 3, 3, 1, 6, 8, 1, 4, 3, 6, 9, 3, 4, 1, 9, 8, 3, 1, 6, 6, 6, 4, 9, 3, 8, 4, 8, 1, 7, 3, 9, 9, 6, 1, 8, 3, 6, 9, 6, 4, 2]","[0, 1, 1, 0, 0, 1, 0, 0, 1, 0, 0, 0, 1, 0, 1, 0, 1, 0, 0, 1, 0, 0, 1, 1, 1, 0, 1, 1, 0, 1, 1, 1, 1, 0, 1, 0, 1, 0, 1, 1, 1, 0, 1, 1, 0, 0, 1, 1, 1, 0, 0, 0, 0, 0, 1, 0, 0, 0, 0, 1, 1, 1, 1, 1, 0, 0, 0, 1, 0, 1, 0, 1, 0, 1, 1, 1, 1, 1, 0, 0, 1, 1, 0, 0, 1, 0, 1, 0, 0, 1, 1, 0, 0, 1, 0, 1, 0, 0, 0]",90,36,54,99,55,44,0,9,0.9090909090909091,1570.7142857142858
11,11,82,2,POST_TEST,"[2, 1, 1, 2, 2, 1, 1, 2, 1, 2, 2, 2, 2, 1, 2, 1, 1, 2, 1, 1, 2, 1, 1, 2, 1, 1, 1, 2, 1, 2, 1, 1, 2, 2, 2, 2, 2, 1, 2, 2, 1, 2, 1, 1, 2, 2, 2, 2, 1, 2, 2, 2, 1, 2, 2, 1, 2, 2, 1, 2, 1, 2, 1, 1, 2, 2, 2, 2, 1, 2, 1, 1, 2, 1, 1, 2, 1, 1, 2, 1, 1, 1, 1, 2, 2, 2, 2, 1, 2, 1, 1, 2, 1, 1, 1, 2, 2, 1, 1]","[2950, 1166, 2583, 1067, 1083, 1300, 734, 717, 768, 833, 1133, 1850, 1084, 733, 1450, 1700, 1601, 717, 1533, 1051, 2899, 1199, 1901, 1016, 833, 667, 1001, 817, 733, 599, 717, 1250, 1416, 3483, 2233, 967, 1232, 815, 1166, 850, 1566, 1400, 1400, 1666, 999, 1683, 1134, 1067, 1666, 1168, 1167, 1433, 1034, 1267, 866, 1033, 1033, 1800, 1000, 850, 1017, 783, 3566, 1083, 733, 983, 2634, 1499, 1516, 800, 1200, 999, 816, 899, 1734, 817, 1250, 683, 967, 3616, 2666, 1267, 1166, 1000, 1350, 2416, 1016, 1351, 2799, 1083, 851, 1216, 1084, 966, 1683, 1015, 933, 1467, 967]","0,1,0,1,1,0,0,0,0,0,1,1,0,1,1,1,0,1,0,1,0,1,1,1,0,0,1,1,0,0,0,1,1,1,0,1,1,1,0,1,0,0,1,0,0,1,1,0,0,0,1,0,1,1,0,1,0,1,0,0,1,0,1,0,1,1,0,0,0,0,1,1,0,1,1,0,0,1,1,1,1,1,0,0,1,0,1,1,0,0,0,1,0,1,0,1,1,0,0","[1, 1, 0, 0, 1, 0, 0, 0, 0, 0, 0, 1, 0, 0, 1, 0, 1, 1, 0, 0, 1, 1, 0, 1, 0, 0, 0, 1, 0, 0, 0, 0, 1, 1, 0, 0, 1, 0, 1, 1, 0, 0, 0, 1, 1, 1, 0, 1, 1, 1, 1, 0, 0, 1, 0, 0, 1, 1, 0, 0, 0, 1, 1, 0, 0, 1, 1, 1, 1, 1, 1, 0, 1, 1, 0, 1, 1, 1, 0, 1, 0, 1, 0, 0, 0, 1, 1, 0, 1, 1, 1, 1, 0, 0, 1, 1, 0, 1, 1]","[6, 2, 9, 2, 6, 3, 1, 4, 7, 6, 4, 6, 8, 9, 9, 9, 3, 9, 9, 3, 6, 2, 1, 8, 1, 1, 7, 9, 7, 4, 9, 9, 8, 6, 6, 8, 8, 9, 6, 6, 2, 4, 9, 2, 8, 9, 2, 8, 2, 7, 7, 4, 9, 9, 4, 9, 7, 6, 1, 8, 3, 9, 4, 3, 4, 7, 6, 4, 1, 6, 1, 3, 9, 3, 7, 6, 1, 3, 2, 3, 1, 4, 1, 4, 6, 9, 6, 9, 7, 4, 3, 6, 7, 1, 1, 8, 6, 4, 1]","[0, 1, 0, 1, 1, 0, 0, 0, 0, 0, 1, 1, 0, 1, 1, 1, 0, 1, 0, 1, 0, 1, 1, 1, 0, 0, 1, 1, 0, 0, 0, 1, 1, 0, 0, 1, 1, 1, 0, 1, 0, 0, 1, 0, 0, 1, 1, 0, 0, 0, 1, 0, 1, 1, 0, 1, 0, 1, 0, 0, 1, 0, 1, 0, 1, 1, 0, 0, 0, 0, 1, 1, 0, 1, 1, 0, 0, 1, 1, 1, 1, 1, 0, 0, 1, 0, 1, 1, 0, 0, 0, 1, 0, 1, 0, 1, 1, 0, 0]",93,46,47,99,48,51,0,6,0.9393939393939394,1322.9292929292928
12,12,85,1,PRE_TEST,"[1, 2, 1, 2, 2, 1, 2, 1, 2, 1, 2, 1, 1, 2, 2, 2, 2, 2, 2, 2, 2, 2, 1, 2, 1, 1, 2, 2, 2, 2, 1, 1, 1, 1, 2, 1, 1, 2, 1, 1, 1, 1, 2, 2, 1, 2, 2, 1, 1, 1, 2, 2, 2, 1, 1, 1, 2, 2, 2, 1, 2, 2, 2, 1, 2, 2, 2, 2, 1, 2, 2, 1, 2, 1, 2, 1, 1, 2, 2, 1, 1, 1, 2, 1, 2, 1, 1, 2, 2, 2, 2, 2, 2, 2, 2, 2, 1, 2, 1]","[1301, 550, 450, 583, 434, 883, 517, 900, 1266, 751, 1032, 567, 750, 666, 549, 484, 750, 1301, 950, 650, 549, 516, 534, 666, 516, 1084, 1217, 550, 1784, 934, 783, 484, 716, 1399, 900, 517, 700, 500, 682, 783, 900, 600, 1233, 683, 1033, 866, 466, 500, 433, 682, 583, 700, 516, 517, 733, 966, 567, 651, 467, 533, 634, 799, 450, 516, 517, 533, 1299, 483, 516, 549, 432, 600, 1017, 935, 615, 518, 567, 567, 883, 467, 533, 567, 1317, 1150, 615, 932, 1000, 583, 2149, 465, 733, 516, 450, 550, 400, 800, 1100, 732, 1384]","1,0,1,1,1,0,0,1,0,1,0,0,0,0,1,1,0,1,0,0,0,0,1,1,1,1,0,1,0,0,1,1,1,0,0,0,1,1,1,1,1,1,1,1,0,0,0,1,1,0,1,0,0,1,0,0,1,0,0,0,1,1,0,1,0,0,1,0,0,1,1,1,1,1,0,0,1,1,0,0,0,1,0,0,1,1,1,0,0,1,0,1,1,0,0,0,1,0,0","[0, 1, 1, 0, 1, 0, 0, 0, 1, 1, 0, 0, 0, 0, 0, 1, 0, 0, 1, 1, 1, 1, 1, 0, 1, 0, 1, 1, 0, 0, 0, 1, 0, 0, 0, 0, 0, 1, 0, 1, 0, 1, 0, 1, 0, 0, 0, 0, 1, 0, 0, 1, 1, 1, 0, 0, 0, 1, 1, 1, 1, 0, 1, 1, 0, 0, 1, 0, 0, 0, 1, 0, 1, 0, 1, 1, 1, 0, 1, 1, 1, 1, 0, 0, 0, 1, 0, 1, 1, 1, 0, 0, 1, 0, 0, 0, 0, 1, 1]","[7, 8, 4, 6, 8, 7, 6, 3, 8, 2, 8, 1, 9, 6, 8, 7, 3, 6, 9, 7, 9, 8, 2, 8, 3, 9, 9, 9, 6, 2, 1, 3, 3, 3, 6, 1, 3, 7, 3, 2, 7, 1, 2, 8, 3, 2, 4, 7, 4, 9, 6, 8, 6, 1, 1, 9, 8, 6, 9, 4, 7, 2, 9, 4, 2, 4, 4, 8, 3, 2, 7, 4, 6, 3, 8, 1, 2, 8, 6, 3, 3, 1, 6, 7, 8, 2, 7, 8, 7, 9, 8, 6, 7, 8, 8, 6, 3, 7, 4]","[0, 0, 1, 1, 1, 0, 0, 1, 0, 1, 0, 0, 0, 0, 1, 1, 0, 1, 0, 0, 0, 0, 1, 1, 1, 1, 0, 1, 0, 0, 1, 1, 1, 0, 0, 0, 1, 1, 1, 1, 1, 1, 1, 1, 0, 0, 0, 1, 1, 0, 1, 0, 0, 1, 0, 0, 1, 0, 0, 0, 1, 1, 0, 1, 0, 0, 0, 0, 0, 1, 1, 1, 1, 1, 0, 0, 1, 1, 0, 0, 0, 1, 0, 0, 1, 1, 1, 0, 0, 1, 0, 1, 1, 0, 0, 0, 1, 0, 0]",91,40,51,99,53,46,2,8,0.9191919191919192,743.939393939394
13,13,85,1,POST_TEST,"[1, 2, 2, 2, 2, 1, 2, 2, 1, 2, 1, 1, 1, 1, 1, 2, 2, 1, 2, 2, 1, 1, 2, 1, 2, 1, 2, 1, 2, 2, 1, 2, 2, 2, 1, 2, 2, 2, 2, 1, 2, 1, 2, 1, 2, 1, 1, 2, 1, 1, 1, 2, 1, 1, 2, 1, 1, 1, 2, 2, 2, 2, 2, 2, 2, 2, 1, 1, 1, 2, 1, 2, 2, 2, 2, 2, 2, 2, 2, 1, 1, 1, 1, 2, 1, 1, 2, 1, 1, 1, 2, 1, 2, 2, 2, 1, 2, 2, 2]","[933, 783, 1301, 450, 416, 567, 567, 383, 517, 417, 567, 650, 950, 433, 483, 451, 466, 499, 717, 533, 450, 401, 467, 418, 434, 499, 432, 584, 584, 582, 483, 1315, 517, 900, 1017, 533, 567, 450, 717, 550, 566, 600, 417, 466, 500, 533, 449, 800, 600, 550, 501, 566, 415, 617, 534, 1033, 500, 950, 500, 766, 450, 450, 483, 583, 1033, 616, 850, 566, 449, 516, 601, 399, 399, 668, 450, 416, 466, 466, 633, 833, 899, 433, 417, 401, 516, 2501, 800, 1066, 450, 849, 965, 467, 700, 800, 882, 917, 434, 518, 683]","1,1,1,0,0,1,0,0,1,0,1,1,0,0,1,0,1,0,1,1,0,1,0,0,0,0,0,0,1,1,1,1,1,1,0,0,1,1,0,0,0,1,0,0,1,1,1,0,0,1,1,0,0,0,0,0,0,1,1,1,1,1,0,1,1,1,0,0,0,0,1,0,1,0,1,0,0,1,1,1,0,0,1,1,1,0,0,0,0,1,1,1,1,1,1,0,0,1,1","[0, 1, 0, 1, 1, 1, 0, 0, 0, 1, 1, 0, 1, 1, 1, 0, 0, 1, 1, 0, 1, 1, 0, 0, 0, 0, 0, 0, 0, 1, 0, 1, 0, 1, 0, 0, 0, 1, 0, 0, 0, 0, 1, 1, 1, 0, 1, 0, 0, 0, 1, 0, 0, 0, 0, 0, 0, 0, 1, 0, 1, 0, 1, 1, 0, 1, 0, 0, 0, 0, 0, 1, 1, 0, 0, 1, 1, 1, 0, 1, 0, 0, 0, 1, 0, 1, 1, 1, 1, 1, 0, 1, 0, 1, 0, 1, 1, 1, 0]","[1, 7, 2, 8, 9, 2, 8, 6, 7, 8, 3, 1, 1, 4, 2, 8, 4, 2, 6, 6, 2, 2, 8, 7, 8, 3, 8, 7, 2, 6, 3, 7, 4, 7, 9, 8, 6, 8, 2, 9, 2, 3, 8, 3, 7, 3, 4, 4, 7, 1, 3, 4, 3, 7, 4, 9, 2, 9, 6, 6, 7, 6, 2, 8, 8, 6, 7, 9, 7, 4, 9, 8, 6, 2, 4, 7, 6, 8, 4, 2, 9, 1, 7, 7, 2, 3, 2, 1, 1, 4, 6, 3, 2, 8, 8, 3, 8, 6, 6]","[0, 1, 1, 0, 0, 1, 0, 0, 1, 0, 1, 1, 0, 0, 1, 0, 1, 0, 1, 1, 0, 1, 0, 0, 0, 0, 0, 0, 1, 1, 1, 1, 1, 0, 0, 0, 1, 1, 0, 0, 0, 1, 0, 0, 1, 1, 1, 0, 0, 1, 1, 0, 0, 0, 0, 0, 0, 1, 1, 1, 1, 1, 0, 1, 1, 1, 0, 0, 0, 0, 1, 0, 1, 0, 1, 0, 0, 1, 1, 1, 0, 0, 1, 1, 1, 0, 0, 0, 0, 1, 1, 1, 1, 1, 1, 0, 0, 1, 1]",92,39,53,99,55,44,2,7,0.9292929292929293,624.959595959596
14,14,84,1,PRE_TEST,"[2, 1, 1, 1, 2, 1, 2, 1, 1, 2, 1, 1, 1, 1, 2, 2, 2, 1, 2, 1, 2, 2, 1, 1, 1, 2, 1, 1, 1, 1, 1, 2, 1, 1, 1, 1, 2, 2, 2, 1, 1, 1, 1, 2, 1, 2, 2, 2, 2, 1, 2, 1, 2, 2, 2, 1, 2, 2, 2, 1, 2, 2, 2, 1, 2, 1, 2, 2, 2, 2, 2, 1, 1, 1, 1, 1, 2, 1, 1, 2, 1, 2, 2, 1, 2, 1, 1, 1, 1, 1, 1, 2, 2, 2, 2, 1, 2, 2, 1]","[1175, 1049, 1074, 700, 775, 950, 699, 1125, 675, 775, 775, 775, 1000, 1400, 776, 651, 949, 850, 800, 875, 1050, 899, 725, 675, 675, 575, 776, 2000, 1050, 774, 750, 1724, 850, 999, 1950, 1600, 875, 675, 1250, 900, 1125, 750, 950, 825, 1450, 1650, 699, 575, 851, 1200, 675, 975, 875, 1525, 800, 625, 850, 700, 700, 999, 800, 824, 1100, 1175, 1375, 1275, 1125, 675, 1251, 750, 950, 925, 950, 1549, 575, 1250, 600, 900, 825, 750, 1199, 1275, 1150, 775, 1300, 1125, 750, 1175, 750, 700, 1150, 875, 800, 1125, 1225, 925, 1326, 1450, 1050]","1,0,1,0,0,0,1,1,1,1,0,0,1,0,1,1,1,1,1,0,0,0,0,1,0,1,1,0,0,0,1,0,0,1,1,0,1,1,0,0,1,0,1,1,1,0,0,1,1,1,0,1,0,0,1,0,0,0,0,1,0,0,0,1,1,1,1,1,0,0,0,0,1,1,1,0,1,0,0,1,0,0,1,1,1,0,1,0,1,0,0,0,1,1,0,0,1,1,1","[0, 1, 1, 0, 0, 0, 0, 1, 0, 1, 0, 0, 0, 1, 1, 0, 1, 0, 1, 0, 0, 0, 0, 0, 1, 1, 0, 1, 1, 1, 1, 0, 0, 0, 1, 0, 0, 1, 0, 0, 0, 1, 1, 0, 1, 0, 0, 0, 1, 0, 1, 1, 0, 0, 0, 1, 1, 1, 1, 1, 0, 0, 0, 0, 1, 0, 0, 1, 0, 0, 0, 0, 0, 1, 0, 1, 1, 0, 0, 0, 1, 1, 1, 0, 1, 0, 0, 1, 1, 0, 0, 0, 0, 1, 0, 0, 0, 1, 0]","[4, 4, 4, 7, 6, 3, 8, 2, 3, 6, 7, 3, 9, 1, 7, 4, 9, 9, 8, 7, 4, 4, 1, 7, 4, 8, 9, 4, 2, 4, 9, 8, 7, 9, 2, 7, 4, 6, 2, 7, 9, 4, 3, 4, 4, 8, 4, 2, 8, 9, 8, 3, 6, 2, 6, 1, 9, 9, 9, 2, 2, 4, 8, 7, 8, 2, 8, 6, 4, 4, 8, 3, 7, 1, 7, 1, 9, 9, 3, 6, 3, 7, 8, 7, 6, 3, 9, 3, 1, 3, 9, 8, 4, 6, 6, 7, 4, 7, 3]","[0, 0, 1, 0, 0, 0, 1, 1, 1, 1, 0, 0, 1, 0, 1, 1, 1, 1, 1, 0, 0, 0, 0, 1, 0, 1, 1, 0, 0, 0, 1, 0, 0, 0, 1, 0, 1, 1, 0, 0, 1, 0, 1, 1, 1, 0, 0, 1, 1, 1, 0, 1, 0, 0, 1, 0, 0, 0, 0, 1, 0, 0, 0, 1, 1, 1, 0, 1, 0, 0, 0, 0, 1, 1, 1, 0, 1, 0, 0, 1, 0, 0, 1, 1, 1, 0, 1, 0, 1, 0, 0, 0, 1, 1, 0, 0, 1, 1, 1]",90,32,58,99,59,40,2,9,0.9090909090909091,981.4949494949495
15,15,84,1,POST_TEST,"[1, 1, 2, 1, 2, 2, 1, 2, 1, 2, 2, 1, 1, 2, 2, 2, 1, 1, 2, 1, 2, 1, 2, 1, 2, 2, 1, 1, 2, 1, 2, 2, 2, 2, 1, 1, 1, 2, 2, 2, 1, 2, 1, 1, 2, 2, 2, 1, 1, 2, 2, 2, 2, 2, 1, 1, 2, 2, 1, 2, 1, 1, 1, 2, 2, 2, 2, 2, 2, 2, 1, 2, 2, 2, 1, 2, 1, 1, 2, 2, 1, 2, 2, 2, 2, 2, 1, 1, 2, 1, 1, 1, 1, 2, 2, 2, 2, 2, 2]","[1625, 975, 1373, 649, 774, 650, 550, 574, 1099, 1275, 825, 1124, 700, 1075, 648, 550, 653, 745, 524, 902, 1475, 1076, 675, 726, 983, 848, 574, 573, 625, 1003, 1195, 1275, 649, 624, 551, 850, 951, 1372, 851, 1225, 999, 1775, 548, 825, 578, 524, 700, 548, 499, 525, 524, 523, 525, 1175, 768, 650, 700, 1246, 573, 751, 700, 648, 572, 1024, 900, 751, 1774, 825, 647, 500, 525, 550, 600, 599, 699, 604, 1300, 899, 598, 902, 574, 648, 549, 621, 649, 597, 827, 700, 675, 1026, 598, 648, 573, 697, 771, 676, 626, 573, 677]","1,1,0,0,0,0,1,1,0,0,1,0,1,0,0,0,0,1,1,1,1,1,1,0,0,1,0,0,1,1,1,0,0,0,1,0,1,0,1,1,0,0,0,0,1,1,0,1,1,1,0,1,1,1,0,1,1,0,0,0,1,1,0,0,0,0,1,0,0,0,1,0,0,0,0,1,0,1,1,0,1,1,0,1,1,1,1,1,0,0,0,0,1,0,1,1,0,1,1","[0, 1, 0, 0, 0, 0, 0, 1, 0, 0, 0, 1, 1, 0, 0, 0, 0, 0, 1, 0, 1, 0, 1, 0, 0, 0, 1, 1, 1, 0, 1, 0, 0, 0, 0, 1, 1, 0, 0, 1, 0, 0, 0, 0, 0, 1, 0, 0, 1, 0, 1, 1, 0, 1, 0, 0, 1, 0, 0, 0, 0, 1, 0, 0, 0, 0, 0, 1, 1, 1, 1, 0, 0, 0, 0, 0, 1, 1, 0, 1, 1, 0, 1, 1, 0, 1, 0, 1, 0, 0, 0, 0, 0, 1, 1, 0, 1, 1, 0]","[9, 2, 4, 9, 8, 4, 3, 8, 1, 2, 6, 1, 1, 4, 8, 4, 7, 1, 6, 1, 6, 7, 6, 9, 2, 4, 1, 3, 9, 9, 9, 6, 4, 8, 3, 4, 1, 6, 2, 9, 3, 4, 1, 3, 2, 6, 2, 3, 1, 4, 7, 9, 9, 7, 3, 7, 4, 4, 3, 6, 1, 4, 3, 4, 8, 4, 6, 9, 7, 8, 1, 2, 4, 4, 9, 6, 3, 1, 2, 6, 3, 8, 8, 4, 8, 8, 9, 1, 4, 7, 7, 1, 3, 6, 6, 4, 6, 7, 4]","[0, 1, 0, 0, 0, 0, 1, 1, 0, 0, 1, 0, 1, 0, 0, 0, 0, 1, 1, 1, 1, 1, 1, 0, 0, 1, 0, 0, 1, 1, 1, 0, 0, 0, 1, 0, 1, 0, 1, 1, 0, 0, 0, 0, 1, 1, 0, 1, 1, 1, 0, 1, 1, 1, 0, 1, 1, 0, 0, 0, 1, 1, 0, 0, 0, 0, 0, 0, 0, 0, 1, 0, 0, 0, 0, 1, 0, 1, 1, 0, 1, 1, 0, 1, 1, 1, 1, 1, 0, 0, 0, 0, 1, 0, 1, 1, 0, 1, 1]",94,33,61,99,62,37,2,5,0.9494949494949495,794.6363636363636
16,16,87,6,PRE_TEST,"[2, 2, 2, 2, 2, 1, 2, 1, 2, 1, 2, 2, 2, 1, 1, 1, 2, 2, 1, 1, 2, 2, 2, 2, 1, 2, 2, 2, 2, 1, 1, 2, 2, 1, 2, 1, 2, 2, 2, 2, 2, 2, 2, 2, 2, 2, 1, 2, 1, 2, 2, 1, 2, 1, 1, 1, 1, 2, 2, 1, 2, 1, 1, 2, 2, 2, 1, 2, 2, 1, 2, 1, 2, 2, 2, 1, 1, 1, 2, 2, 2, 2, 2, 1, 1, 1, 2, 1, 2, 2, 1, 2, 1, 2, 2, 1, 2, 2, 1]","[751, 800, 1283, 1798, 651, 499, 515, 566, 600, 483, 566, 533, 2268, 466, 466, 501, 750, 833, 483, 483, 615, 1051, 683, 449, 700, 1116, 1283, 1318, 599, 650, 483, 2167, 784, 3917, 985, 700, 417, 617, 983, 584, 1117, 435, 783, 833, 498, 483, 533, 550, 467, 767, 1251, 734, 1616, 1166, 516, 1317, 467, 800, 1582, 766, 1551, 984, 500, 1549, 1315, 501, 716, 433, 465, 483, 899, 633, 500, 683, 700, 1000, 916, 2033, 517, 750, 1982, 485, 1166, 848, 517, 1549, 1266, 716, 765, 433, 632, 549, 684, 700, 1750, 516, 533, 583, 899]","1,1,1,1,0,1,1,0,0,0,1,1,1,0,1,1,0,0,1,1,0,0,0,0,1,0,1,0,0,0,1,0,0,0,0,1,1,1,0,0,0,1,0,0,0,0,0,1,0,0,0,1,0,1,1,1,1,1,1,0,1,0,1,1,1,1,1,0,0,1,1,0,0,1,1,1,0,0,1,1,1,1,0,1,1,0,0,0,0,1,0,0,0,1,1,0,0,1,1","[1, 0, 1, 0, 1, 1, 0, 1, 1, 1, 1, 0, 1, 0, 0, 1, 0, 0, 0, 1, 0, 0, 0, 0, 0, 1, 1, 0, 0, 0, 0, 1, 1, 0, 0, 0, 1, 0, 1, 1, 1, 1, 0, 0, 0, 0, 0, 0, 1, 1, 1, 1, 0, 0, 1, 0, 1, 0, 1, 0, 0, 1, 1, 0, 1, 0, 1, 0, 0, 0, 1, 0, 0, 0, 1, 0, 1, 1, 1, 0, 1, 0, 1, 1, 0, 1, 1, 1, 1, 1, 0, 0, 0, 0, 1, 0, 0, 0, 1]","[7, 6, 9, 4, 6, 3, 8, 4, 6, 4, 9, 4, 9, 3, 3, 4, 4, 2, 3, 3, 9, 8, 6, 9, 9, 6, 7, 2, 2, 9, 2, 7, 6, 7, 6, 1, 7, 6, 2, 6, 7, 7, 4, 2, 8, 8, 7, 8, 2, 8, 9, 2, 4, 7, 4, 7, 1, 8, 6, 7, 6, 3, 3, 6, 7, 8, 1, 6, 8, 9, 9, 7, 8, 8, 9, 7, 1, 3, 9, 2, 8, 8, 7, 4, 2, 1, 8, 2, 7, 8, 3, 4, 3, 2, 8, 7, 8, 6, 4]","[0, 1, 1, 1, 0, 1, 1, 0, 0, 0, 1, 1, 1, 0, 1, 1, 0, 0, 1, 1, 0, 0, 0, 0, 1, 0, 1, 0, 0, 0, 1, 0, 0, 0, 0, 1, 1, 1, 0, 0, 0, 1, 0, 0, 0, 0, 0, 1, 0, 0, 0, 1, 0, 1, 1, 1, 1, 1, 1, 0, 1, 0, 1, 1, 1, 1, 0, 0, 0, 1, 1, 0, 0, 1, 1, 1, 0, 0, 1, 1, 1, 1, 0, 1, 1, 0, 0, 0, 0, 1, 0, 0, 0, 1, 1, 0, 0, 1, 1]",88,39,49,99,53,46,4,11,0.8888888888888888,866.4444444444445
17,17,87,6,POST_TEST,"[1, 2, 1, 1, 2, 2, 2, 2, 2, 1, 1, 2, 2, 1, 2, 1, 1, 1, 2, 1, 1, 2, 1, 1, 2, 2, 1, 2, 1, 2, 2, 2, 2, 1, 1, 1, 1, 2, 2, 2, 2, 1, 1, 2, 1, 2, 1, 1, 2, 1, 1, 1, 2, 1, 2, 2, 2, 1, 2, 2, 2, 2, 2, 2, 1, 1, 1, 1, 2, 1, 1, 2, 1, 1, 1, 1, 1, 1, 2, 1, 2, 1, 1, 1, 2, 1, 1, 2, 1, 2, 2, 1, 1, 2, 1, 2, 2, 2, 2]","[1367, 933, 951, 1383, 2350, 1150, 900, 634, 549, 1100, 449, 751, 1716, 666, 666, 583, 850, 867, 382, 432, 800, 633, 1066, 1282, 750, 834, 567, 483, 450, 617, 450, 600, 432, 867, 984, 584, 466, 833, 783, 482, 499, 750, 550, 817, 532, 517, 499, 701, 599, 534, 500, 450, 449, 516, 616, 1117, 416, 817, 2033, 633, 398, 616, 533, 551, 433, 450, 1082, 484, 533, 452, 432, 516, 467, 1000, 550, 484, 550, 401, 666, 467, 1317, 451, 451, 416, 1716, 599, 733, 467, 533, 1050, 1049, 1033, 3133, 1867, 1149, 482, 433, 450, 466]","1,1,1,1,0,1,1,1,1,0,0,1,0,1,0,0,1,0,0,0,1,1,1,0,0,0,0,1,1,0,0,0,0,1,0,1,1,0,1,0,1,1,1,0,1,0,1,0,0,0,0,1,1,1,1,0,0,0,1,0,1,0,0,1,0,0,0,0,1,0,0,0,1,0,1,1,0,1,1,1,0,0,0,0,1,1,0,0,1,1,1,1,1,1,0,0,0,1,1","[0, 1, 0, 1, 0, 0, 1, 0, 1, 0, 0, 0, 1, 1, 0, 0, 0, 1, 1, 1, 1, 0, 1, 0, 0, 0, 0, 0, 1, 0, 0, 0, 0, 1, 0, 0, 1, 0, 0, 1, 1, 0, 1, 0, 0, 1, 1, 0, 0, 0, 0, 0, 1, 0, 1, 0, 0, 0, 0, 1, 1, 0, 0, 0, 1, 1, 0, 0, 0, 1, 1, 1, 1, 0, 0, 1, 0, 0, 1, 0, 1, 1, 1, 1, 1, 0, 1, 1, 1, 0, 1, 0, 1, 0, 1, 1, 1, 1, 0]","[7, 8, 2, 4, 4, 2, 7, 4, 8, 9, 1, 6, 6, 3, 6, 3, 1, 4, 8, 3, 4, 2, 3, 9, 4, 4, 3, 8, 2, 6, 8, 6, 8, 3, 9, 3, 2, 4, 2, 7, 9, 3, 4, 8, 1, 9, 4, 9, 4, 7, 3, 3, 7, 7, 4, 4, 4, 7, 4, 8, 9, 2, 8, 6, 4, 1, 9, 9, 6, 1, 2, 6, 2, 7, 3, 2, 7, 7, 8, 1, 6, 2, 2, 2, 7, 7, 7, 7, 1, 8, 7, 7, 3, 8, 2, 7, 7, 8, 4]","[0, 1, 1, 1, 0, 1, 1, 1, 1, 0, 0, 1, 0, 1, 0, 0, 1, 0, 0, 0, 1, 1, 1, 0, 0, 0, 0, 1, 1, 0, 0, 0, 0, 0, 0, 1, 1, 0, 1, 0, 1, 1, 1, 0, 1, 0, 1, 0, 0, 0, 0, 1, 1, 1, 1, 0, 0, 0, 1, 0, 1, 0, 0, 1, 0, 0, 0, 0, 1, 0, 0, 0, 1, 0, 1, 1, 0, 1, 1, 1, 0, 0, 0, 0, 1, 1, 0, 0, 1, 1, 1, 1, 1, 1, 0, 0, 0, 1, 1]",90,37,53,99,54,45,2,9,0.9090909090909091,758.0505050505051
18,18,90,7,PRE_TEST,"[2, 1, 1, 1, 1, 1, 2, 2, 1, 1, 2, 2, 2, 2, 1, 1, 2, 1, 2, 1, 2, 2, 2, 2, 1, 2, 1, 2, 1, 1, 2, 2, 1, 2, 2, 1, 1, 2, 2, 1, 1, 2, 2, 1, 2, 2, 1, 1, 1, 2, 1, 2, 2, 1, 2, 2, 1, 1, 2, 1, 2, 2, 2, 2, 1, 2, 1, 2, 1, 2, 1, 1, 2, 2, 2, 2, 2, 2, 1, 2, 1, 1, 2, 2, 2, 1, 2, 1, 2, 2, 1, 1, 2, 1, 1, 2, 2, 1, 1]","[1333, 900, 1000, 1101, 1001, 1600, 1534, 767, 1167, 767, 1034, 967, 901, 800, 1700, 667, 667, 967, 833, 967, 766, 900, 700, 567, 766, 700, 833, 800, 967, 666, 767, 867, 1266, 1167, 866, 734, 700, 666, 667, 1034, 867, 767, 667, 768, 866, 800, 667, 567, 634, 733, 733, 768, 733, 799, 932, 801, 766, 934, 1199, 1134, 667, 633, 933, 833, 833, 900, 1334, 867, 1100, 600, 799, 634, 666, 633, 967, 1066, 667, 899, 867, 1000, 1233, 633, 900, 900, 900, 1134, 766, 1200, 834, 733, 700, 667, 700, 934, 1200, 833, 734, 1033, 1068]","1,1,1,1,1,0,0,1,0,0,0,1,1,1,0,1,1,0,0,0,0,1,0,0,0,1,1,0,0,1,0,1,1,0,1,0,0,1,0,1,0,1,0,1,0,1,0,0,1,0,0,0,0,0,1,0,1,1,1,1,0,1,1,1,1,1,1,0,0,0,1,0,0,0,1,0,1,1,1,1,0,1,1,1,1,1,1,0,0,0,0,1,1,0,0,0,0,1,1","[1, 0, 1, 0, 1, 0, 0, 0, 1, 1, 1, 1, 0, 1, 0, 0, 1, 0, 0, 0, 0, 0, 1, 1, 1, 1, 0, 1, 1, 1, 0, 0, 1, 1, 1, 0, 0, 0, 1, 1, 0, 0, 1, 1, 0, 0, 1, 1, 1, 0, 0, 0, 0, 0, 0, 1, 1, 0, 1, 0, 1, 1, 0, 1, 0, 1, 1, 0, 0, 0, 0, 1, 1, 1, 1, 0, 0, 1, 0, 1, 0, 0, 1, 0, 1, 0, 1, 0, 0, 0, 0, 0, 1, 0, 0, 0, 0, 0, 1]","[9, 9, 1, 3, 1, 7, 6, 8, 4, 2, 6, 9, 6, 9, 3, 1, 8, 9, 6, 7, 6, 8, 9, 9, 2, 8, 7, 6, 3, 1, 9, 4, 4, 8, 6, 7, 9, 2, 7, 3, 3, 6, 7, 6, 2, 4, 1, 1, 3, 8, 1, 2, 4, 1, 2, 6, 1, 3, 8, 7, 8, 9, 8, 9, 7, 8, 2, 6, 3, 2, 9, 3, 8, 6, 8, 2, 2, 8, 9, 4, 1, 1, 4, 4, 8, 7, 6, 3, 6, 8, 3, 1, 9, 8, 1, 2, 7, 9, 2]","[0, 1, 1, 1, 1, 0, 0, 1, 0, 0, 0, 1, 1, 1, 0, 1, 1, 0, 0, 0, 0, 1, 0, 0, 0, 1, 1, 0, 0, 1, 0, 1, 1, 0, 1, 0, 0, 1, 0, 1, 0, 1, 0, 1, 0, 1, 0, 0, 1, 0, 0, 0, 0, 0, 1, 0, 1, 1, 1, 1, 0, 1, 1, 1, 1, 1, 0, 0, 0, 0, 1, 0, 0, 0, 1, 0, 1, 1, 1, 1, 0, 1, 1, 1, 1, 1, 1, 0, 0, 0, 0, 1, 1, 0, 0, 0, 0, 1, 1]",91,40,51,99,54,45,0,8,0.9191919191919192,880.8787878787879
19,19,90,7,POST_TEST,"[1, 1, 1, 1, 2, 1, 2, 1, 2, 1, 1, 2, 2, 1, 2, 2, 2, 1, 2, 1, 1, 1, 1, 1, 2, 2, 1, 1, 1, 1, 2, 2, 1, 1, 1, 1, 1, 1, 1, 1, 2, 2, 1, 1, 2, 2, 1, 1, 2, 2, 1, 1, 2, 2, 1, 1, 1, 1, 1, 1, 2, 1, 1, 2, 2, 2, 1, 1, 1, 2, 1, 2, 1, 1, 2, 2, 2, 2, 1, 2, 1, 1, 1, 1, 1, 2, 1, 1, 2, 1, 2, 1, 2, 1, 1, 2, 1, 2, 1]","[1650, 1100, 1184, 833, 599, 633, 767, 784, 667, 717, 600, 684, 826, 716, 616, 933, 1083, 1083, 1100, 700, 634, 917, 1017, 1050, 1017, 1168, 1000, 883, 584, 667, 883, 850, 1417, 1133, 767, 984, 634, 733, 617, 567, 634, 1384, 533, 1131, 1233, 1100, 1034, 834, 1100, 816, 1050, 1669, 850, 968, 867, 1086, 919, 1017, 600, 999, 1049, 1101, 883, 600, 566, 951, 1583, 1350, 499, 1133, 683, 650, 767, 550, 767, 582, 866, 1283, 934, 850, 1018, 784, 918, 1352, 888, 1254, 767, 1633, 751, 1083, 1150, 767, 1150, 1150, 1100, 800, 700, 650, 1067]","1,0,1,0,0,0,1,0,0,1,0,1,1,0,1,1,1,0,0,1,0,0,1,1,1,1,0,0,0,1,1,0,0,1,0,1,0,1,1,1,1,0,1,1,1,0,0,0,1,1,0,0,0,0,1,0,1,0,1,1,0,0,1,0,0,0,0,1,1,0,1,1,0,0,0,0,1,1,0,0,0,0,1,1,1,1,0,0,0,1,1,0,1,1,0,0,1,1,1","[1, 0, 0, 1, 1, 1, 1, 0, 0, 0, 1, 1, 0, 1, 1, 0, 1, 0, 0, 0, 1, 1, 1, 0, 1, 0, 1, 1, 1, 1, 0, 1, 1, 1, 0, 0, 1, 1, 0, 1, 0, 1, 1, 0, 1, 0, 0, 0, 0, 1, 0, 0, 0, 0, 0, 1, 1, 0, 0, 1, 0, 0, 0, 1, 1, 1, 0, 0, 1, 0, 0, 1, 0, 0, 0, 0, 0, 1, 0, 0, 0, 0, 0, 1, 0, 1, 0, 0, 0, 0, 1, 0, 0, 1, 0, 0, 0, 1, 0]","[4, 7, 9, 4, 8, 4, 6, 1, 6, 9, 4, 8, 6, 2, 8, 3, 7, 1, 2, 3, 4, 2, 3, 3, 8, 4, 4, 2, 3, 2, 8, 9, 2, 1, 7, 9, 3, 2, 3, 2, 2, 6, 1, 1, 2, 2, 7, 9, 8, 7, 6, 7, 8, 2, 3, 1, 4, 3, 3, 4, 2, 1, 7, 6, 6, 9, 1, 7, 3, 8, 3, 8, 7, 7, 6, 6, 8, 7, 7, 6, 9, 1, 9, 3, 9, 4, 9, 7, 8, 3, 8, 2, 8, 3, 7, 8, 7, 8, 9]","[0, 0, 1, 0, 0, 0, 1, 0, 0, 1, 0, 1, 1, 0, 1, 1, 1, 0, 0, 1, 0, 0, 1, 1, 1, 1, 0, 0, 0, 1, 1, 0, 0, 0, 0, 1, 0, 1, 1, 1, 1, 0, 1, 1, 1, 0, 0, 0, 1, 1, 0, 0, 0, 0, 1, 0, 1, 0, 1, 1, 0, 0, 1, 0, 0, 0, 0, 1, 1, 0, 1, 1, 0, 0, 0, 0, 1, 1, 0, 0, 0, 0, 1, 1, 1, 1, 0, 0, 0, 1, 1, 0, 1, 1, 0, 0, 1, 1, 1]",86,32,54,99,57,42,2,13,0.8686868686868687,921.7171717171717
20,20,96,4,PRE_TEST,"[2, 2, 1, 1, 2, 2, 2, 1, 2, 2, 1, 1, 1, 1, 1, 1, 1, 2, 2, 1, 1, 1, 1, 1, 2, 1, 1, 1, 2, 1, 1, 2, 1, 2, 1, 2, 2, 1, 2, 1, 1, 2, 2, 1, 2, 1, 2, 1, 1, 2, 2, 1, 2, 1, 1, 1, 2, 2, 2, 2, 1, 2, 2, 2, 2, 1, 1, 2, 2, 1, 1, 2, 2, 1, 1, 2, 1, 2, 2, 1, 1, 1, 1, 1, 2, 2, 2, 2, 1, 1, 1, 2, 1, 1, 1, 1, 1, 2, 1]","[1113, 1164, 747, 681, 898, 548, 1014, 549, 864, 1729, 1164, 715, 681, 915, 981, 832, 714, 581, 914, 1180, 681, 2096, 599, 732, 1064, 1264, 1180, 1364, 1696, 815, 1215, 1646, 664, 1147, 2178, 482, 1197, 631, 1796, 981, 1247, 648, 2294, 781, 1231, 699, 732, 1296, 581, 814, 680, 1148, 1479, 1413, 599, 864, 1114, 715, 748, 1247, 714, 648, 913, 981, 715, 715, 1363, 1280, 1446, 1131, 764, 898, 599, 1214, 1195, 948, 797, 3259, 582, 548, 1098, 781, 1031, 881, 665, 782, 1380, 482, 1098, 1198, 847, 698, 882, 1713, 1347, 464, 1480, 681, 631]","1,0,0,1,0,1,0,0,1,1,0,0,1,0,1,1,0,1,0,0,1,0,0,1,0,0,1,1,0,1,1,1,1,0,0,1,1,0,1,0,1,1,1,0,1,0,0,0,1,0,1,0,1,0,1,0,1,0,0,1,1,1,0,1,0,0,1,1,1,0,1,0,0,1,0,1,1,1,1,0,0,0,1,0,0,0,0,1,0,0,1,0,1,1,0,1,1,0,0","[0, 1, 1, 1, 0, 0, 1, 1, 1, 0, 1, 1, 1, 0, 0, 1, 0, 0, 1, 1, 1, 0, 0, 0, 1, 1, 1, 0, 1, 1, 0, 1, 0, 0, 0, 0, 1, 0, 0, 1, 1, 0, 1, 0, 0, 1, 1, 1, 1, 0, 0, 1, 1, 0, 0, 1, 1, 0, 0, 0, 1, 0, 1, 1, 0, 0, 0, 1, 0, 1, 1, 0, 0, 0, 1, 1, 0, 1, 0, 1, 1, 1, 1, 0, 0, 0, 0, 0, 1, 1, 1, 0, 0, 1, 0, 0, 1, 0, 0]","[8, 7, 4, 1, 6, 6, 9, 2, 8, 6, 3, 3, 1, 7, 7, 1, 3, 8, 8, 3, 1, 7, 1, 1, 9, 1, 4, 9, 6, 2, 7, 8, 7, 8, 3, 4, 7, 7, 4, 2, 1, 6, 9, 3, 6, 3, 9, 4, 2, 4, 6, 4, 6, 7, 9, 1, 8, 8, 2, 2, 1, 4, 7, 6, 8, 1, 3, 4, 2, 1, 1, 4, 8, 3, 2, 8, 1, 6, 6, 2, 4, 2, 3, 7, 6, 6, 4, 4, 3, 2, 4, 2, 1, 4, 1, 1, 4, 2, 1]","[0, 0, 0, 1, 0, 1, 0, 0, 1, 1, 0, 0, 1, 0, 1, 1, 0, 1, 0, 0, 1, 0, 0, 1, 0, 0, 1, 1, 0, 1, 1, 1, 1, 0, 0, 1, 1, 0, 1, 0, 1, 1, 1, 0, 1, 0, 0, 0, 1, 0, 1, 0, 1, 0, 1, 0, 1, 0, 0, 1, 1, 1, 0, 1, 0, 0, 0, 1, 1, 0, 1, 0, 0, 1, 0, 1, 1, 1, 1, 0, 0, 0, 1, 0, 0, 0, 0, 1, 0, 0, 1, 0, 1, 1, 0, 1, 1, 0, 0]",90,40,50,99,50,49,0,9,0.9090909090909091,1016.070707070707
21,21,96,4,POST_TEST,"[2, 2, 1, 1, 2, 2, 2, 1, 1, 2, 2, 2, 2, 2, 2, 2, 2, 1, 1, 2, 1, 2, 1, 2, 2, 2, 2, 2, 2, 2, 1, 2, 1, 2, 2, 2, 2, 1, 2, 1, 2, 2, 1, 1, 2, 2, 1, 2, 1, 2, 2, 1, 1, 2, 2, 1, 1, 1, 1, 2, 1, 2, 1, 1, 2, 1, 2, 2, 2, 2, 1, 1, 1, 1, 1, 1, 2, 2, 1, 2, 1, 1, 2, 1, 2, 1, 1, 2, 2, 1, 2, 2, 2, 2, 2, 1, 1, 1, 1]","[1381, 1197, 683, 813, 665, 582, 898, 866, 781, 931, 715, 931, 1163, 715, 1413, 1064, 915, 831, 782, 798, 865, 931, 1846, 831, 565, 1047, 599, 964, 1447, 864, 865, 616, 848, 947, 665, 515, 599, 781, 699, 615, 848, 631, 715, 1113, 781, 614, 764, 830, 699, 732, 648, 781, 797, 848, 598, 1080, 1296, 532, 549, 1230, 514, 632, 648, 1597, 1231, 832, 715, 499, 1130, 549, 898, 699, 664, 814, 781, 665, 764, 1048, 832, 748, 649, 747, 2444, 515, 1014, 1580, 3109, 665, 549, 1197, 664, 749, 1512, 948, 1097, 698, 715, 1845, 1263]","1,1,0,1,0,1,0,0,1,1,0,1,1,1,0,0,0,0,0,1,1,1,0,0,1,0,1,1,0,0,0,1,1,1,0,0,0,1,0,0,1,0,1,1,0,1,0,0,0,1,0,1,1,0,1,1,0,0,1,0,1,1,1,1,0,0,0,1,0,0,1,0,0,0,1,0,1,0,1,0,1,1,0,0,1,1,1,0,1,0,1,1,0,0,1,1,0,1,1","[0, 1, 0, 0, 1, 1, 0, 0, 0, 1, 0, 0, 1, 0, 1, 1, 1, 1, 1, 1, 0, 1, 0, 0, 0, 1, 1, 0, 1, 1, 1, 1, 0, 1, 0, 0, 0, 0, 1, 1, 1, 0, 0, 1, 0, 0, 1, 1, 1, 1, 0, 0, 1, 0, 0, 1, 0, 0, 0, 1, 1, 0, 1, 0, 1, 1, 0, 0, 1, 1, 1, 0, 0, 0, 0, 1, 1, 0, 0, 1, 1, 0, 1, 1, 1, 0, 1, 0, 0, 1, 1, 0, 1, 1, 1, 0, 1, 1, 0]","[6, 9, 1, 3, 9, 9, 8, 9, 3, 6, 8, 2, 9, 6, 9, 8, 8, 3, 1, 9, 1, 7, 9, 2, 2, 7, 9, 2, 9, 8, 4, 7, 9, 8, 4, 4, 8, 1, 9, 2, 6, 8, 9, 4, 6, 2, 3, 8, 1, 7, 6, 9, 1, 8, 8, 2, 9, 9, 9, 7, 1, 8, 2, 7, 7, 3, 4, 6, 9, 9, 2, 1, 1, 3, 9, 2, 9, 8, 9, 7, 2, 3, 6, 1, 8, 6, 2, 8, 2, 1, 6, 2, 8, 7, 6, 7, 1, 4, 9]","[0, 1, 0, 1, 0, 1, 0, 0, 1, 1, 0, 1, 1, 1, 0, 0, 0, 0, 0, 1, 1, 1, 0, 0, 1, 0, 1, 1, 0, 0, 0, 1, 1, 0, 0, 0, 0, 1, 0, 0, 1, 0, 1, 1, 0, 1, 0, 0, 0, 1, 0, 1, 1, 0, 1, 1, 0, 0, 1, 0, 1, 1, 1, 1, 0, 0, 0, 1, 0, 0, 1, 0, 0, 0, 1, 0, 1, 0, 1, 0, 1, 1, 0, 0, 1, 1, 1, 0, 1, 0, 1, 1, 0, 0, 1, 1, 0, 1, 1]",95,49,46,99,47,52,2,4,0.9595959595959596,904.4343434343434
22,22,97,4,PRE_TEST,"[2, 1, 1, 2, 2, 1, 1, 1, 2, 2, 2, 1, 1, 1, 1, 1, 1, 2, 1, 2, 1, 1, 1, 1, 1, 1, 2, 1, 1, 1, 1, 2, 1, 1, 1, 1, 1, 2, 1, 1, 2, 1, 2, 2, 1, 2, 2, 1, 1, 1, 2, 2, 1, 2, 2, 1, 2, 1, 1, 2, 2, 1, 1, 2, 2, 2, 2, 1, 2, 2, 1, 2, 2, 1, 1, 1, 2, 2, 1, 1, 1, 1, 2, 1, 2, 2, 1, 2, 1, 2, 2, 2, 2, 2, 2, 1, 1, 2, 2]","[2787, 1268, 1219, 1035, 783, 801, 850, 1035, 2069, 1000, 768, 935, 768, 917, 1318, 968, 1402, 868, 1151, 883, 833, 1101, 1268, 1618, 750, 768, 1067, 900, 1035, 785, 1001, 1334, 1635, 1919, 1634, 1286, 2252, 2220, 1501, 883, 1068, 918, 1652, 1001, 1085, 1151, 1417, 1284, 1734, 1051, 1201, 1201, 900, 1084, 1135, 1018, 1434, 785, 683, 1218, 900, 784, 1584, 900, 1518, 1235, 2085, 1201, 884, 951, 1368, 1301, 851, 1268, 1084, 885, 901, 934, 1769, 1017, 1434, 1368, 1334, 1685, 1468, 950, 1234, 1601, 1985, 968, 834, 1251, 1385, 1669, 1001, 1033, 985, 1585, 617]","0,1,0,0,0,0,1,1,1,1,1,0,1,1,1,0,0,1,1,0,1,0,1,0,0,0,0,0,1,1,1,0,0,1,1,1,1,0,0,1,0,1,0,0,0,0,0,0,0,1,1,1,1,1,1,1,0,0,0,1,0,0,0,1,1,1,1,0,1,0,1,0,0,1,0,1,0,0,1,1,1,0,1,0,0,1,1,1,0,0,1,1,0,1,0,0,1,0,0","[0, 0, 1, 1, 1, 1, 1, 0, 1, 0, 1, 0, 0, 1, 0, 1, 1, 1, 0, 1, 1, 0, 0, 1, 1, 1, 1, 1, 1, 0, 1, 0, 0, 0, 1, 0, 1, 0, 0, 0, 1, 1, 0, 0, 0, 0, 0, 0, 0, 0, 1, 0, 1, 0, 1, 0, 1, 1, 1, 1, 0, 0, 0, 0, 1, 0, 0, 1, 1, 0, 0, 1, 1, 1, 0, 0, 1, 1, 1, 0, 1, 0, 0, 1, 1, 1, 0, 1, 0, 0, 0, 1, 0, 0, 1, 1, 1, 0, 0]","[2, 7, 2, 8, 8, 1, 2, 3, 6, 4, 8, 7, 7, 1, 7, 1, 6, 6, 3, 8, 1, 7, 1, 4, 2, 1, 6, 3, 4, 1, 1, 8, 1, 7, 1, 9, 4, 8, 9, 7, 8, 1, 2, 6, 3, 2, 6, 3, 9, 9, 7, 2, 1, 6, 7, 3, 9, 3, 3, 7, 8, 1, 9, 6, 8, 8, 6, 4, 8, 8, 9, 9, 9, 1, 1, 1, 9, 8, 3, 3, 4, 9, 2, 4, 6, 8, 3, 8, 9, 8, 8, 9, 8, 6, 6, 4, 4, 6, 6]","[0, 1, 0, 0, 0, 0, 1, 1, 1, 1, 1, 0, 1, 1, 1, 0, 0, 1, 1, 0, 1, 0, 1, 0, 0, 0, 0, 0, 1, 1, 1, 0, 0, 0, 1, 1, 1, 0, 0, 1, 0, 1, 0, 0, 0, 0, 0, 0, 0, 1, 1, 1, 1, 1, 1, 1, 0, 0, 0, 1, 0, 0, 0, 1, 1, 1, 0, 0, 1, 0, 1, 0, 0, 1, 0, 1, 0, 0, 1, 1, 1, 0, 1, 0, 0, 1, 1, 1, 0, 0, 1, 1, 0, 1, 0, 0, 1, 0, 0]",90,40,50,99,50,49,0,9,0.9090909090909091,1206.4848484848485
23,23,97,4,POST_TEST,"[2, 1, 2, 1, 1, 1, 1, 1, 2, 2, 1, 2, 2, 2, 1, 2, 2, 2, 1, 1, 1, 1, 1, 2, 1, 2, 1, 1, 2, 2, 2, 2, 1, 1, 2, 1, 2, 2, 1, 2, 2, 1, 2, 1, 2, 2, 2, 2, 2, 2, 1, 1, 1, 2, 1, 1, 2, 1, 1, 2, 2, 2, 2, 2, 1, 2, 2, 2, 2, 1, 1, 2, 1, 1, 1, 1, 1, 1, 1, 2, 1, 1, 1, 1, 2, 1, 2, 2, 1, 2, 2, 2, 1, 2, 1, 1, 2, 2, 1]","[968, 817, 968, 984, 867, 1016, 917, 767, 1151, 750, 817, 885, 834, 768, 1085, 951, 885, 1051, 968, 1235, 1018, 834, 800, 1368, 867, 950, 968, 768, 901, 718, 968, 834, 784, 1251, 884, 1067, 951, 1134, 835, 735, 1067, 751, 852, 768, 834, 1301, 967, 800, 684, 1117, 850, 867, 1267, 1018, 767, 817, 951, 817, 1017, 951, 700, 951, 768, 801, 1168, 951, 885, 751, 668, 1067, 1601, 1101, 817, 683, 1118, 735, 869, 951, 1052, 901, 834, 902, 1034, 1069, 835, 834, 1217, 1034, 818, 1019, 1051, 867, 767, 868, 1168, 834, 917, 1334, 1051]","1,1,0,1,0,1,1,0,0,0,0,0,0,1,1,0,1,1,1,1,0,0,0,0,1,1,0,1,0,1,0,1,1,0,1,0,0,1,0,1,1,0,1,1,1,1,0,0,1,0,1,0,1,1,0,1,0,1,0,0,1,0,0,0,1,1,0,0,0,1,0,0,0,0,0,1,1,1,0,0,0,1,1,1,1,1,1,0,0,1,1,0,1,0,0,1,1,1,1","[0, 1, 0, 0, 1, 1, 0, 1, 1, 1, 1, 1, 1, 1, 0, 1, 1, 0, 1, 0, 1, 1, 1, 1, 1, 0, 1, 1, 0, 0, 1, 1, 0, 1, 1, 0, 0, 0, 1, 1, 0, 1, 1, 0, 1, 0, 1, 1, 1, 0, 0, 1, 1, 0, 1, 1, 0, 0, 1, 1, 1, 0, 0, 0, 0, 1, 0, 0, 0, 0, 1, 1, 1, 1, 1, 1, 0, 1, 0, 0, 0, 0, 1, 0, 1, 0, 1, 0, 0, 0, 1, 0, 0, 1, 1, 1, 0, 1, 0]","[2, 1, 6, 7, 3, 6, 1, 2, 6, 9, 1, 7, 6, 7, 9, 9, 7, 6, 3, 7, 4, 4, 1, 7, 4, 2, 2, 2, 8, 8, 7, 6, 1, 3, 6, 3, 6, 4, 4, 6, 6, 2, 9, 1, 7, 4, 6, 7, 9, 4, 3, 1, 4, 2, 1, 2, 4, 1, 1, 6, 7, 4, 8, 6, 9, 8, 8, 4, 6, 7, 1, 7, 3, 1, 4, 4, 1, 3, 9, 4, 7, 7, 2, 7, 9, 3, 7, 2, 1, 4, 7, 8, 1, 9, 4, 1, 6, 6, 9]","[0, 1, 0, 1, 0, 1, 1, 0, 0, 0, 0, 0, 0, 1, 1, 0, 1, 1, 1, 1, 0, 0, 0, 0, 1, 1, 0, 1, 0, 1, 0, 1, 1, 0, 1, 0, 0, 1, 0, 1, 1, 0, 1, 1, 1, 1, 0, 0, 1, 0, 1, 0, 1, 1, 0, 1, 0, 1, 0, 0, 1, 0, 0, 0, 1, 1, 0, 0, 0, 1, 0, 0, 0, 0, 0, 1, 1, 1, 0, 0, 0, 1, 1, 1, 1, 1, 1, 0, 0, 1, 1, 0, 1, 0, 0, 1, 1, 1, 1]",90,46,44,99,44,55,0,9,0.9090909090909091,937.10101010101
24,24,116,7,PRE_TEST,"[2, 2, 2, 2, 2, 1, 2, 2, 1, 1, 2, 1, 1, 2, 1, 1, 1, 1, 1, 1, 1, 2, 1, 1, 2, 2, 1, 2, 2, 2, 1, 2, 2, 2, 2, 2, 1, 2, 2, 2, 1, 2, 1, 1, 1, 1, 2, 1, 2, 2, 2, 2, 1, 2, 1, 2, 2, 2, 1, 2, 2, 1, 1, 1, 1, 2, 1, 2, 1, 1, 2, 2, 1, 2, 2, 1, 1, 2, 2, 1, 1, 1, 1, 1, 2, 2, 1, 2, 2, 1, 1, 1, 2, 2, 1, 2, 1, 1, 1]","[1000, 500, 467, 1066, 716, 616, 482, 616, 516, 549, 434, 583, 649, 833, 466, 717, 666, 466, 750, 583, 700, 599, 1116, 567, 566, 533, 433, 700, 483, 433, 550, 1032, 850, 616, 683, 517, 583, 549, 499, 733, 883, 683, 950, 1166, 1083, 450, 800, 1400, 467, 666, 516, 566, 650, 666, 615, 616, 416, 616, 699, 583, 649, 549, 483, 567, 600, 433, 649, 483, 666, 1400, 583, 566, 1199, 1216, 549, 683, 783, 1233, 1000, 582, 966, 1066, 467, 533, 533, 1132, 1232, 466, 549, 483, 483, 683, 432, 450, 550, 467, 467, 400, 700]","0,0,0,1,1,0,0,1,0,1,0,1,0,0,0,1,0,0,1,1,1,1,1,1,0,1,0,0,0,1,1,1,1,1,1,0,0,0,1,1,1,0,1,0,1,1,1,1,0,0,1,0,0,1,0,0,1,1,0,1,0,0,0,0,1,1,0,1,1,0,0,1,0,1,1,1,1,1,0,1,0,0,0,1,1,0,1,1,0,0,0,1,0,0,0,0,1,1,1","[0, 0, 0, 0, 1, 0, 0, 0, 1, 1, 0, 0, 1, 1, 1, 1, 0, 0, 0, 1, 0, 1, 0, 1, 0, 0, 1, 1, 1, 1, 0, 1, 0, 0, 1, 0, 0, 0, 0, 1, 0, 1, 1, 0, 0, 1, 0, 1, 0, 0, 0, 1, 1, 1, 0, 0, 0, 1, 0, 0, 1, 1, 1, 1, 1, 0, 0, 0, 1, 0, 0, 0, 1, 1, 0, 1, 0, 1, 0, 0, 1, 1, 1, 1, 0, 1, 1, 0, 1, 1, 1, 1, 0, 0, 0, 0, 0, 1, 0]","[2, 4, 4, 1, 8, 3, 8, 2, 4, 1, 2, 7, 3, 8, 2, 4, 9, 9, 1, 3, 3, 6, 9, 3, 2, 6, 3, 7, 7, 8, 3, 7, 2, 4, 6, 2, 9, 2, 2, 8, 7, 6, 4, 9, 3, 1, 4, 3, 2, 8, 6, 8, 1, 6, 1, 4, 4, 8, 1, 6, 8, 4, 4, 2, 3, 4, 7, 2, 4, 7, 8, 6, 2, 8, 8, 1, 1, 8, 6, 7, 3, 2, 3, 1, 6, 8, 1, 6, 9, 3, 3, 4, 4, 4, 9, 8, 9, 3, 7]","[0, 0, 0, 1, 1, 0, 0, 1, 0, 1, 0, 1, 0, 0, 0, 1, 0, 0, 1, 1, 1, 1, 1, 1, 0, 1, 0, 0, 0, 1, 1, 1, 1, 0, 1, 0, 0, 0, 1, 1, 1, 0, 1, 0, 1, 1, 1, 1, 0, 0, 1, 0, 0, 1, 0, 0, 1, 1, 0, 1, 0, 0, 0, 0, 1, 1, 0, 1, 1, 0, 0, 1, 0, 1, 1, 1, 1, 1, 0, 1, 0, 0, 0, 1, 1, 0, 1, 1, 0, 0, 0, 1, 0, 0, 0, 0, 1, 1, 1]",91,39,52,99,53,46,2,8,0.9191919191919192,675.1515151515151
25,25,116,7,POST_TEST,"[2, 2, 2, 2, 1, 2, 2, 2, 1, 2, 2, 2, 1, 1, 1, 2, 2, 1, 1, 2, 2, 1, 2, 1, 2, 2, 2, 1, 1, 2, 2, 1, 2, 2, 2, 2, 2, 1, 2, 1, 2, 2, 2, 1, 2, 1, 1, 1, 1, 2, 1, 1, 2, 1, 1, 2, 2, 1, 1, 1, 1, 2, 2, 1, 2, 2, 1, 2, 2, 1, 1, 2, 1, 2, 1, 2, 1, 1, 2, 2, 2, 1, 2, 2, 1, 2, 1, 1, 2, 2, 2, 1, 1, 1, 2, 2, 1, 1, 1]","[699, 516, 616, 450, 483, 467, 550, 449, 466, 633, 616, 533, 650, 433, 499, 616, 416, 416, 516, 500, 733, 716, 582, 500, 449, 417, 400, 483, 516, 400, 433, 416, 433, 466, 417, 633, 516, 567, 466, 566, 467, 400, 488, 517, 399, 683, 417, 600, 433, 950, 1032, 900, 900, 617, 566, 666, 700, 567, 433, 399, 484, 483, 650, 632, 666, 549, 1182, 433, 500, 716, 666, 634, 449, 483, 466, 483, 1065, 1016, 749, 467, 583, 449, 533, 433, 533, 517, 584, 482, 449, 349, 366, 450, 450, 550, 466, 450, 950, 700, 650]","0,0,0,0,0,0,1,0,0,1,1,0,0,1,1,0,1,1,1,1,1,0,0,1,0,1,0,0,1,1,1,1,1,1,0,1,1,0,0,0,1,1,0,0,0,1,1,0,1,1,1,1,0,0,0,1,1,1,0,0,1,1,0,0,0,0,0,1,1,1,1,1,1,0,1,1,1,0,0,0,1,0,1,0,0,0,0,0,0,1,0,0,1,0,0,1,1,1,1","[1, 1, 1, 1, 1, 1, 1, 0, 0, 0, 1, 0, 0, 0, 1, 0, 0, 1, 0, 1, 0, 1, 1, 1, 0, 0, 1, 1, 1, 0, 1, 0, 1, 1, 0, 0, 1, 0, 0, 0, 0, 1, 0, 0, 0, 0, 1, 0, 0, 1, 0, 1, 0, 0, 0, 0, 1, 0, 1, 1, 1, 0, 1, 1, 1, 1, 1, 1, 0, 1, 0, 1, 0, 1, 1, 0, 1, 0, 0, 0, 0, 1, 1, 0, 0, 0, 0, 0, 0, 0, 1, 1, 1, 0, 0, 0, 1, 0, 1]","[2, 6, 8, 9, 2, 9, 8, 2, 9, 7, 8, 8, 3, 3, 4, 8, 8, 2, 3, 8, 4, 3, 7, 3, 8, 8, 6, 2, 1, 8, 7, 1, 9, 8, 7, 2, 6, 3, 8, 3, 2, 8, 2, 9, 2, 7, 2, 9, 9, 7, 7, 1, 1, 9, 7, 4, 6, 3, 2, 2, 2, 2, 7, 2, 6, 9, 2, 6, 8, 3, 3, 9, 3, 8, 3, 8, 1, 1, 2, 2, 8, 1, 6, 8, 7, 8, 2, 1, 8, 8, 8, 2, 3, 1, 4, 4, 4, 3, 2]","[0, 0, 0, 0, 0, 0, 1, 0, 0, 1, 1, 0, 0, 1, 1, 0, 1, 1, 1, 1, 1, 0, 0, 1, 0, 1, 0, 0, 1, 1, 1, 1, 1, 0, 0, 1, 1, 0, 0, 0, 1, 1, 0, 0, 0, 1, 1, 0, 1, 1, 1, 1, 0, 0, 0, 1, 1, 1, 0, 0, 1, 1, 0, 0, 0, 0, 0, 1, 1, 1, 1, 1, 1, 0, 1, 1, 1, 0, 0, 0, 1, 0, 1, 0, 0, 0, 0, 0, 0, 1, 0, 0, 1, 0, 0, 1, 1, 1, 1]",92,44,48,99,52,47,2,7,0.9292929292929293,560.4444444444445
26,26,140,1,PRE_TEST,"[2, 1, 1, 1, 1, 2, 2, 2, 2, 2, 2, 2, 2, 1, 2, 1, 2, 1, 2, 2, 2, 2, 2, 2, 1, 2, 1, 1, 2, 1, 2, 2, 2, 2, 2, 2, 2, 2, 2, 1, 2, 1, 1, 2, 1, 2, 1, 1, 2, 2, 2, 2, 2, 1, 2, 1, 2, 2, 2, 2, 2, 1, 1, 2, 1, 1, 1, 1, 1, 1, 2, 1, 2, 1, 1, 1, 2, 1, 2, 1, 2, 2, 2, 1, 1, 1, 1, 1, 2, 1, 1, 1, 1, 2, 1, 1, 1, 2, 1]","[583, 450, 400, 400, 449, 566, 550, 650, 549, 500, 400, 366, 484, 450, 550, 384, 401, 533, 716, 450, 499, 483, 500, 450, 400, 500, 551, 1083, 883, 516, 532, 499, 533, 549, 466, 366, 384, 483, 417, 366, 500, 467, 433, 451, 650, 500, 716, 483, 483, 468, 500, 500, 583, 400, 433, 416, 549, 617, 683, 749, 533, 566, 449, 533, 650, 498, 783, 384, 434, 384, 585, 383, 500, 416, 499, 348, 399, 417, 583, 550, 417, 483, 450, 500, 549, 366, 350, 317, 550, 583, 316, 350, 449, 616, 516, 466, 832, 667, 383]","1,1,0,0,0,0,0,0,1,0,0,1,1,1,0,1,0,1,1,1,0,1,0,0,1,1,1,1,0,0,1,0,0,1,0,1,0,0,1,0,0,0,1,1,0,1,1,0,1,0,0,0,1,1,1,1,0,0,0,1,0,0,1,1,1,1,0,0,0,1,1,0,1,1,0,1,1,1,0,0,0,1,1,0,0,0,1,1,1,0,1,1,0,1,1,0,0,0,0","[1, 0, 1, 1, 1, 1, 1, 1, 1, 0, 0, 0, 1, 0, 1, 1, 0, 0, 1, 0, 1, 1, 0, 0, 0, 1, 0, 1, 0, 0, 0, 1, 1, 1, 0, 0, 1, 1, 1, 0, 0, 0, 0, 1, 0, 0, 1, 0, 0, 1, 1, 1, 1, 0, 1, 0, 1, 1, 1, 1, 0, 0, 0, 1, 0, 1, 1, 1, 1, 1, 0, 1, 1, 0, 1, 1, 0, 1, 0, 0, 0, 0, 1, 0, 0, 0, 0, 1, 0, 1, 1, 0, 1, 1, 0, 1, 1, 1, 1]","[9, 7, 3, 2, 1, 4, 8, 6, 7, 2, 6, 6, 8, 3, 6, 1, 4, 7, 2, 8, 9, 6, 6, 4, 1, 9, 7, 2, 8, 9, 4, 9, 6, 8, 4, 6, 6, 9, 6, 7, 2, 9, 9, 8, 9, 2, 4, 3, 4, 8, 6, 8, 8, 1, 7, 7, 2, 2, 7, 6, 8, 9, 7, 9, 3, 2, 4, 4, 3, 4, 6, 1, 8, 1, 3, 2, 4, 7, 6, 9, 4, 8, 8, 3, 7, 7, 1, 3, 4, 4, 4, 3, 7, 6, 3, 4, 2, 9, 3]","[0, 1, 0, 0, 0, 0, 0, 0, 1, 0, 0, 1, 1, 1, 0, 1, 0, 1, 1, 1, 0, 1, 0, 0, 1, 1, 1, 1, 0, 0, 1, 0, 0, 0, 0, 1, 0, 0, 1, 0, 0, 0, 1, 1, 0, 1, 1, 0, 1, 0, 0, 0, 1, 1, 1, 1, 0, 0, 0, 1, 0, 0, 1, 1, 1, 1, 0, 0, 0, 1, 1, 0, 1, 1, 0, 1, 1, 1, 0, 0, 0, 1, 1, 0, 0, 0, 1, 1, 1, 0, 1, 1, 0, 1, 1, 0, 0, 0, 0]",86,41,45,99,45,54,0,13,0.8686868686868687,504.3030303030303
27,27,140,1,POST_TEST,"[2, 1, 1, 2, 1, 2, 1, 2, 1, 2, 2, 1, 1, 1, 2, 1, 2, 1, 2, 2, 1, 1, 2, 1, 1, 2, 2, 2, 1, 1, 1, 1, 2, 1, 2, 2, 1, 1, 2, 2, 2, 2, 2, 2, 2, 1, 1, 2, 2, 2, 1, 1, 1, 1, 2, 2, 2, 2, 2, 1, 2, 2, 2, 2, 2, 2, 2, 1, 2, 2, 2, 2, 1, 2, 1, 2, 2, 1, 2, 2, 1, 1, 1, 2, 1, 1, 2, 2, 1, 2, 1, 1, 2, 1, 2, 2, 2, 2, 1]","[484, 416, 383, 483, 499, 417, 415, 449, 467, 417, 484, 533, 450, 384, 550, 417, 482, 550, 599, 517, 550, 467, 733, 634, 500, 450, 417, 550, 599, 550, 433, 432, 534, 683, 600, 416, 516, 550, 433, 550, 400, 399, 383, 416, 450, 499, 667, 517, 466, 632, 433, 566, 464, 399, 517, 616, 466, 650, 418, 416, 516, 466, 433, 432, 449, 466, 382, 515, 516, 450, 449, 416, 550, 500, 633, 433, 417, 466, 465, 401, 416, 533, 416, 616, 549, 600, 499, 532, 750, 451, 450, 500, 450, 433, 449, 833, 434, 533, 551]","0,1,1,0,0,1,1,0,1,0,0,0,1,1,1,0,0,1,1,1,1,0,0,0,1,1,1,1,0,0,0,0,0,1,0,0,0,0,0,0,0,0,0,1,1,1,0,1,1,1,0,0,1,1,1,1,1,0,0,1,1,0,0,1,1,1,1,1,0,0,0,0,1,0,1,0,0,0,1,1,0,1,0,0,1,0,1,1,1,0,1,0,0,1,1,1,1,0,0","[0, 0, 1, 0, 0, 0, 1, 0, 0, 1, 1, 1, 1, 0, 1, 0, 0, 0, 1, 0, 1, 0, 0, 0, 0, 1, 0, 1, 0, 0, 0, 0, 0, 1, 0, 0, 0, 0, 0, 0, 0, 0, 0, 0, 1, 0, 1, 1, 0, 1, 0, 0, 0, 1, 0, 1, 0, 1, 1, 1, 0, 1, 1, 1, 0, 1, 0, 1, 0, 0, 0, 0, 0, 1, 1, 0, 0, 0, 0, 1, 0, 0, 1, 1, 1, 0, 0, 1, 0, 1, 1, 0, 0, 0, 1, 0, 1, 0, 0]","[8, 3, 2, 6, 9, 8, 3, 6, 3, 9, 8, 1, 1, 1, 6, 1, 2, 7, 7, 4, 4, 3, 7, 9, 1, 9, 8, 7, 7, 9, 9, 1, 6, 4, 2, 8, 3, 9, 8, 2, 2, 2, 2, 2, 9, 9, 3, 6, 6, 6, 1, 7, 3, 7, 4, 9, 2, 7, 9, 4, 6, 9, 6, 8, 6, 9, 4, 3, 8, 4, 2, 8, 3, 6, 4, 6, 6, 1, 4, 6, 1, 7, 1, 4, 3, 7, 8, 7, 7, 7, 1, 7, 8, 4, 7, 2, 7, 8, 3]","[0, 1, 1, 0, 0, 1, 1, 0, 1, 0, 0, 0, 1, 1, 1, 0, 0, 1, 1, 1, 1, 0, 0, 0, 1, 1, 1, 1, 0, 0, 0, 0, 0, 0, 0, 0, 0, 0, 0, 0, 0, 0, 0, 1, 1, 1, 0, 1, 1, 1, 0, 0, 1, 1, 1, 1, 1, 0, 0, 1, 1, 0, 0, 1, 1, 1, 0, 1, 0, 0, 0, 0, 1, 0, 1, 0, 0, 0, 1, 1, 0, 1, 0, 0, 1, 0, 1, 1, 1, 0, 1, 0, 0, 1, 1, 1, 1, 0, 0]",91,31,60,99,62,37,2,8,0.9191919191919192,496.1313131313131
28,28,158,2,PRE_TEST,"[1, 1, 1, 2, 1, 1, 2, 2, 2, 2, 1, 1, 2, 1, 1, 1, 1, 2, 2, 1, 2, 1, 2, 2, 1, 2, 2, 1, 1, 1, 2, 2, 1, 1, 2, 2, 1, 1, 2, 2, 2, 2, 1, 1, 2, 1, 2, 1, 1, 2, 1, 2, 2, 2, 2, 2, 1, 1, 2, 2, 1, 2, 2, 2, 1, 1, 1, 2, 1, 1, 1, 2, 1, 2, 2, 2, 2, 2, 2, 2, 2, 2, 1, 2, 2, 2, 2, 2, 1, 1, 1, 2, 2, 2, 2, 2, 1, 2, 1]","[801, 1433, 716, 683, 717, 716, 667, 484, 516, 600, 534, 501, 584, 983, 634, 584, 600, 617, 533, 567, 601, 666, 566, 701, 567, 516, 500, 634, 633, 600, 533, 618, 1117, 1566, 1251, 633, 683, 683, 667, 766, 1067, 617, 534, 666, 566, 484, 650, 917, 650, 567, 583, 616, 584, 550, 450, 600, 818, 567, 533, 617, 483, 983, 751, 566, 1533, 1083, 750, 517, 649, 633, 584, 549, 633, 700, 667, 733, 767, 517, 900, 717, 650, 634, 733, 717, 783, 1350, 867, 1167, 984, 1083, 634, 783, 633, 583, 567, 684, 632, 734, 933]","1,1,1,1,0,1,0,0,0,0,0,0,0,1,0,0,0,1,0,1,0,1,1,0,1,0,1,1,1,0,1,1,1,0,1,1,1,0,1,1,0,1,0,1,0,0,1,0,0,0,0,0,1,0,0,1,0,0,1,0,1,1,1,1,1,1,0,1,0,1,0,0,1,1,0,1,0,1,0,0,0,1,1,1,1,1,1,1,0,0,0,1,0,0,0,0,1,1,1","[0, 1, 0, 1, 0, 0, 1, 1, 1, 1, 1, 1, 1, 1, 0, 0, 0, 0, 1, 1, 0, 0, 1, 0, 0, 1, 1, 0, 1, 0, 0, 1, 0, 1, 1, 0, 1, 0, 0, 1, 0, 0, 1, 1, 0, 0, 0, 1, 1, 1, 1, 1, 1, 0, 0, 0, 1, 1, 1, 0, 0, 1, 0, 1, 0, 1, 1, 1, 0, 0, 1, 1, 1, 0, 1, 1, 0, 0, 1, 1, 1, 1, 0, 1, 0, 1, 0, 1, 0, 0, 0, 0, 1, 1, 1, 1, 1, 0, 1]","[1, 3, 1, 6, 9, 3, 6, 6, 9, 6, 2, 3, 6, 2, 9, 7, 1, 4, 9, 1, 2, 1, 9, 8, 9, 8, 7, 3, 1, 1, 4, 6, 9, 2, 8, 4, 4, 7, 6, 8, 6, 2, 4, 4, 2, 6, 8, 2, 3, 6, 4, 7, 7, 8, 8, 8, 3, 1, 8, 6, 7, 9, 4, 4, 3, 1, 4, 8, 3, 9, 4, 8, 3, 6, 7, 9, 4, 2, 8, 7, 7, 9, 3, 9, 2, 8, 6, 7, 3, 9, 3, 2, 6, 6, 7, 9, 1, 6, 4]","[0, 1, 1, 1, 0, 1, 0, 0, 0, 0, 0, 0, 0, 1, 0, 0, 0, 1, 0, 1, 0, 1, 1, 0, 1, 0, 1, 1, 1, 0, 1, 1, 1, 0, 1, 1, 1, 0, 1, 1, 0, 1, 0, 1, 0, 0, 1, 0, 0, 0, 0, 0, 1, 0, 0, 1, 0, 0, 1, 0, 1, 1, 1, 1, 1, 1, 0, 1, 0, 1, 0, 0, 1, 1, 0, 1, 0, 1, 0, 0, 0, 1, 1, 1, 1, 1, 1, 1, 0, 0, 0, 1, 0, 0, 0, 0, 1, 1, 1]",90,47,43,99,44,55,0,9,0.9090909090909091,711.8484848484849
29,29,158,2,POST_TEST,"[2, 1, 1, 2, 1, 1, 1, 1, 1, 1, 1, 2, 2, 2, 1, 2, 2, 1, 2, 2, 1, 2, 1, 2, 1, 1, 1, 1, 1, 2, 2, 2, 1, 2, 1, 2, 1, 2, 2, 1, 1, 1, 2, 1, 1, 1, 1, 2, 2, 1, 1, 1, 2, 2, 2, 1, 1, 1, 2, 1, 2, 2, 1, 1, 1, 2, 2, 2, 2, 1, 1, 1, 2, 2, 2, 2, 2, 1, 2, 1, 2, 1, 1, 1, 2, 1, 2, 1, 2, 2, 2, 1, 2, 1, 2, 1, 1, 2, 1]","[1483, 1067, 533, 467, 433, 467, 483, 584, 533, 500, 484, 500, 567, 600, 851, 1233, 650, 501, 533, 534, 733, 851, 1000, 867, 1367, 1250, 1100, 517, 484, 499, 516, 683, 567, 583, 667, 916, 500, 1283, 650, 899, 1034, 717, 683, 600, 1333, 450, 416, 450, 451, 434, 633, 517, 450, 600, 450, 534, 534, 367, 449, 701, 967, 634, 600, 816, 650, 550, 516, 683, 851, 700, 750, 750, 633, 567, 434, 500, 617, 717, 933, 700, 583, 666, 500, 483, 483, 667, 900, 566, 500, 566, 434, 732, 750, 466, 533, 549, 600, 416, 483]","0,0,0,1,1,1,0,0,0,0,1,0,1,1,0,0,1,0,1,1,1,1,1,1,1,1,0,0,0,0,1,0,0,1,1,1,0,1,0,1,0,0,1,1,0,0,0,1,0,0,0,1,1,0,1,1,0,0,1,0,1,1,1,0,0,0,1,1,0,0,0,0,0,0,1,1,0,1,1,0,0,1,0,0,1,1,0,1,1,1,1,1,0,0,1,0,1,0,0","[0, 0, 0, 0, 1, 0, 1, 1, 1, 1, 1, 0, 0, 1, 0, 0, 0, 1, 1, 0, 1, 0, 1, 0, 1, 0, 1, 1, 1, 1, 1, 0, 0, 0, 1, 0, 1, 1, 0, 0, 1, 1, 1, 0, 1, 1, 1, 1, 0, 0, 0, 0, 1, 0, 0, 1, 0, 0, 0, 1, 1, 0, 1, 0, 0, 0, 0, 1, 0, 0, 0, 0, 0, 0, 0, 1, 0, 0, 1, 0, 0, 0, 1, 1, 1, 0, 1, 1, 0, 1, 0, 1, 0, 0, 0, 1, 1, 0, 0]","[2, 9, 7, 4, 3, 9, 3, 4, 4, 3, 1, 4, 4, 8, 7, 4, 8, 3, 7, 8, 9, 2, 8, 8, 2, 1, 2, 1, 2, 7, 9, 6, 1, 8, 4, 4, 3, 8, 2, 7, 2, 4, 6, 1, 4, 1, 1, 9, 8, 7, 1, 3, 6, 8, 2, 1, 1, 1, 2, 2, 6, 8, 1, 1, 3, 2, 2, 9, 8, 4, 9, 7, 2, 4, 4, 7, 2, 9, 6, 3, 4, 1, 4, 2, 8, 9, 9, 4, 2, 6, 2, 4, 6, 9, 8, 1, 3, 4, 7]","[0, 0, 0, 1, 1, 1, 0, 0, 0, 0, 1, 0, 1, 1, 0, 0, 1, 0, 1, 1, 1, 1, 1, 1, 1, 1, 0, 0, 0, 0, 1, 0, 0, 0, 1, 1, 0, 1, 0, 1, 0, 0, 1, 1, 0, 0, 0, 1, 0, 0, 0, 1, 1, 0, 1, 1, 0, 0, 1, 0, 1, 1, 1, 0, 0, 0, 0, 1, 0, 0, 0, 0, 0, 0, 1, 1, 0, 1, 1, 0, 0, 1, 0, 0, 1, 1, 0, 1, 1, 1, 1, 1, 0, 0, 1, 0, 1, 0, 0]",88,34,54,99,55,44,0,11,0.8888888888888888,658.4141414141415
